#   1 KRON_RADIUS            Kron apertures in units of A or B                         
#   2 MAGERR_APER            RMS error vector for fixed aperture mag.                   [mag]
#   3 Y_IMAGE                Object position along y                                    [pixel]
#   4 X_IMAGE                Object position along x                                    [pixel]
#   5 THETA_IMAGE            Position angle (CCW/x)                                     [deg]
#   6 FLUX_APER              Flux vector within fixed circular aperture(s)              [count]
#   7 A_IMAGE                Profile RMS along major axis                               [pixel]
#   8 THRESHOLD              Detection threshold above background                       [count]
#   9 B_IMAGE                Profile RMS along minor axis                               [pixel]
#  10 FLUX_RADIUS            Fraction-of-light radii                                    [pixel]
#  11 FLUXERR_APER           RMS error vector for aperture flux(es)                     [count]
#  12 MAG_APER               Fixed aperture magnitude vector                            [mag]
#  13 NUMBER                 Running object number                                     
 3.50   0.0000     52.4333     61.7887  -0.96     27974.71     6.716           15     6.060      8.396  0.002335948  16.9331          1
 3.50   0.0000     58.9519   1076.9445  78.69      39826.7     2.128           15     2.010      1.491  0.002335683  16.5496          2
 3.50   0.0000     15.7497    983.4656 -87.98     4452.999     4.577           15     2.016      5.216   0.00233489  18.9284          3
 3.50   0.0000     16.2981    382.9857 -59.76     358.5967     1.472           15     1.239      1.199   0.00233489  21.6635          4
 3.50   0.0000     17.0164     89.4730 -38.79     4216.073     1.671           15     1.631      0.989  0.002337269  18.9877          5
 3.50   0.0000     13.8114   1444.2374 -49.76     11056.44     1.739           15     1.710      1.275  0.002335948  17.9410          6
 4.39   0.0000     13.2809    839.4588 -64.27     145.1285     1.757           15     1.136      3.101  0.002334626  22.6456          7
 3.50   0.0000      9.1427   1182.2218 -58.33     164.5337     1.090           15     1.053      1.281   0.00233674  22.5094          8
 3.50   0.0000      5.7226   1467.8271  -3.92     63.66346     1.185           15     0.927      2.015  0.002221361  23.5403          9
 4.17   0.0000      3.6161    143.2476  67.68     142.9064     1.691           15     1.563      1.980  0.002031819  22.6624         10
 4.93   0.0001      3.6825    183.8440  -3.51     43.68996     1.227           15     0.993      2.819  0.002037583  23.9490         11
 5.78   0.0001      2.6513    843.5182  30.83     18.33051     0.918           15     0.533      1.889  0.001923514  24.8921         12
 6.15   0.0001      1.8051    302.4689   3.69     13.28606     0.944           15     0.716      3.600  0.001824704  25.2415         13
 3.88   0.0000     23.8485    365.4695  -5.27     803.2453     1.415           15     1.352      0.905   0.00233489  20.7879         14
 3.50   0.0000     23.0219    381.4544  24.10     237.9951     1.356           15     1.215      1.334   0.00233674  22.1086         15
 3.50   0.0000     17.3081   1213.4200  41.56     74.82289     0.958           15     0.859      0.982  0.002335155  23.3649         16
 3.50   0.0000     14.8494   1561.3939 -15.08     94.50169     1.001           15     0.739      1.304  0.002337269  23.1114         17
 5.35   0.0001     15.4901    192.9883  -3.36     50.49136     0.789           15     0.499      1.402  0.002335155  23.7920         18
 3.64   0.0000     33.0731   1108.5452  63.35     370.8696     2.076           15     1.318      2.825  0.002334362  21.6269         19
 5.13   0.0000     22.8372    696.7354  15.01     122.2194     0.929           15     0.844      1.287  0.002335948  22.8321         20
 4.91   0.0001     21.0478    212.1387 -47.04     40.17191     0.848           15     0.658      1.485   0.00233489  24.0402         21
 4.25   0.0000     24.2998   1451.6592 -46.73     53.40885     1.019           15     0.856      1.181  0.002333568  23.7310         22
 4.89   0.0000     32.4316    324.9747 -21.81     236.2509     1.573           15     1.287      2.012  0.002335155  22.1166         23
 7.04   0.0000     24.8343    529.8267  45.19     57.14704     0.760           15     0.568      1.420  0.002335948  23.6575         24
 6.77   0.0000     25.9974    701.2047  -0.88     63.10867     0.932           15     0.740      3.242   0.00233489  23.5498         25
 5.58   0.0000     33.7462     14.6674  68.44     104.7878     1.066           15     0.851      1.355  0.002334626  22.9992         26
 3.50   0.0000     37.0465   1519.9734 -74.82     226.0977     1.086           15     1.069      1.323  0.002337004  22.1643         27
 4.89   0.0000     43.2915    438.5799 -53.89     212.8021     1.732           15     1.306      2.652  0.002335155  22.2301         28
 3.50   0.0000     38.0197   1169.1301  12.56     198.0202     1.291           15     1.180      1.320  0.002337004  22.3082         29
 3.50   0.0000     79.0614    535.8589 -60.94     35687.62     2.005           15     1.968      1.486  0.002334626  16.6687         30
 4.00   0.0000     41.4925    913.7985 -64.52     236.5097     1.229           15     1.053      1.158   0.00233489  22.1154         31
 7.19   0.0001     33.9672   1066.4922  58.09     39.47935     0.804           15     0.311      1.838  0.002334626  24.0591         32
 3.50   0.0000     38.5997   1224.6497 -30.78     95.64603     1.230           15     0.776      1.155  0.002337269  23.0983         33
 4.36   0.0000     49.4274    263.3997 -85.92      151.051     1.572           15     1.144      1.948  0.002335155  22.6022         34
 4.11   0.0001     42.6318    226.6726  31.41     46.23569     1.087           15     0.718      1.353  0.002335683  23.8876         35
 6.89   0.0002     39.4751   1126.5167 -43.87     16.59248     0.504           15     0.495      1.548  0.002334097  25.0002         36
 4.13   0.0001     41.4938   1000.3320  -1.34     44.31031     1.055           15     0.499      1.139  0.002334097  23.9337         37
 3.50   0.0000     46.5427   1429.2081  87.60     63.67684     0.924           15     0.722      1.270  0.002337533  23.5400         38
 6.79   0.0001     45.7283    473.0384 -10.25     46.22233     0.733           15     0.681      2.204  0.002335683  23.8879         39
 3.50   0.0000     49.4531   1433.9266   9.19     216.1707     1.098           15     0.936      1.277  0.002334626  22.2130         40
 5.27   0.0000     46.8039    664.5811  -3.64     114.7765     0.954           15     0.725      2.629  0.002335419  22.9004         41
 6.31   0.0000     50.2168    119.8696  39.25     96.35545     0.808           15     0.669      2.030  0.002337004  23.0903         42
 8.31   0.0000     49.3352    879.6915  46.31     84.62798     0.567           15     0.338      2.041   0.00233489  23.2312         43
 4.26   0.0001     57.3694   1240.2938 -43.44     28.84853     0.873           15     0.506      1.239  0.002334626  24.3997         44
 3.50   0.0000     74.1010    126.4825 -37.88     1749.683     1.512           15     1.441      1.093  0.002333039  19.9426         45
 6.03   0.0000     58.9935    469.1689  53.54     60.62814     0.919           15     0.474      1.778  0.002335948  23.5933         46
 3.77   0.0000     65.0532   1146.3168  -0.33     126.3115     1.446           15     1.194      1.604  0.002334097  22.7964         47
 4.29   0.0001     66.7913   1414.2537 -52.11       35.443     1.146           15     0.850      1.661  0.002337004  24.1762         48
 3.50   0.0001     65.6870   1514.6782 -83.97     35.55605     0.878           15     0.625      1.296  0.002333833  24.1727         49
 7.38   0.0000     68.4347     17.8157  78.08     117.4115     1.055           15     0.886      4.036  0.002335948  22.8757         50
 3.50   0.0000     70.9532   1320.7623 -65.93     71.41626     1.011           15     0.819      1.176  0.002336212  23.4155         51
 8.63   0.0000     75.5962     80.4636 -42.88     196.6826     1.575           15     0.971      9.451  0.002337269  22.3156         52
 3.50   0.0000    120.9287    787.4847 -54.06     53124.23     2.061           15     2.026      1.516  0.002333833  16.2368         53
 3.62   0.0000     81.3385    419.7168 -81.41     316.4427     1.590           15     1.316      1.499  0.002334362  21.7993         54
 4.03   0.0000     89.6814    375.3958 -15.19     665.6685     2.400           15     2.068      3.585  0.002335948  20.9919         55
 7.76   0.0000     73.8174    732.3933 -72.14      62.9368     0.728           15     0.457      2.164   0.00233489  23.5527         56
 3.50   0.0000     95.5782     54.3880  32.31     2567.758     1.642           15     1.615      0.946  0.002335155  19.5261         57
 3.69   0.0000     78.5903   1031.9658  -4.43     56.10441     1.096           15     0.929      1.055  0.002336476  23.6775         58
 7.49   0.0001     73.6417   1255.6758 -46.33     47.21249     0.584           15     0.329      1.446  0.002335155  23.8649         59
 6.38   0.0000     82.9322    930.9178  37.76     116.2369     1.232           15     1.036      2.589  0.002334626  22.8866         60
 5.48   0.0000     87.5256    757.1620  67.42     180.8638     1.324           15     1.225      1.646  0.002335419  22.4066         61
 4.11   0.0000     86.9768   1358.2871 -79.18     89.71198     1.121           15     0.895      1.448  0.002335683  23.1679         62
 6.41   0.0000     86.7005    862.2626 -36.15     109.5268     1.409           15     0.998      2.078  0.002334626  22.9512         63
 5.20   0.0000     90.7034   1043.9060  53.71     61.29585     1.596           15     0.915      1.468  0.002333039  23.5814         64
 3.64   0.0000     90.6287    494.1021 -78.55     234.1405     1.207           15     1.126      0.929  0.002334097  22.1263         65
 6.33   0.0000     87.8049    810.6982 -51.85     62.16183     1.048           15     0.682      2.607  0.002335155  23.5662         66
 6.24   0.0001     85.0333   1559.0710  45.28     49.95813     0.911           15     0.526      1.781  0.002335683  23.8035         67
 7.02   0.0000     85.7787    923.1913 -46.10     69.82076     0.761           15     0.562      2.030  0.002335419  23.4400         68
 7.71   0.0001     84.3400    843.6768  45.74     46.53084     0.576           15     0.334      1.960  0.002334626  23.8806         69
 3.96   0.0000     97.1728    451.1170 -15.24      469.882     2.162           15     1.290      2.471  0.002335419  21.3700         70
 8.27   0.0000     86.6779    735.3153  45.35     100.9778     0.565           15     0.340      2.152  0.002334097  23.0394         71
 4.14   0.0000     94.2043    387.5450   0.77     111.6973     0.927           15     0.726      1.302  0.002337533  22.9299         72
 6.18   0.0000     95.9942    559.7447 -89.68     65.15583     0.677           15     0.436      1.442  0.002337797  23.5151         73
 7.67   0.0000     93.6628    870.6546 -44.68     54.29582     0.584           15     0.329      1.524   0.00233489  23.7131         74
 6.01   0.0000    101.7270    517.3474  34.34     91.21506     1.115           15     0.881      1.950  0.002334362  23.1498         75
 4.76   0.0000    107.3404    861.3600  41.76     93.78168     0.979           15     0.860      0.961  0.002335948  23.1197         76
 6.65   0.0000    106.3168    180.0375  -3.56     64.91367     0.737           15     0.660      1.432  0.002335419  23.5192         77
 4.80   0.0000    114.3042    414.1661 -68.16     134.9355     1.228           15     1.015      1.267  0.002334097  22.7247         78
 5.78   0.0000    106.9803   1420.9817 -40.64     55.20346     0.798           15     0.763      1.475  0.002335683  23.6951         79
 3.50   0.0001    109.9786   1513.2715   1.53     40.00789     0.899           15     0.736      1.040   0.00233674  24.0446         80
 3.50   0.0000    116.1239    989.4625 -58.20     80.48284     1.140           15     1.020      1.484  0.002334362  23.2857         81
 4.26   0.0000    116.2589     65.1139  13.51     178.9827     1.618           15     1.054      1.338  0.002334626  22.4180         82
 3.50   0.0000    116.7223    152.4540 -86.31     133.2595     1.125           15     0.972      1.003  0.002334362  22.7383         83
 4.38   0.0000    117.6551    911.8856 -66.68     78.97981     0.936           15     0.682      1.971  0.002334626  23.3062         84
 3.90   0.0000    125.2983    492.6189  -0.31     142.2798     1.667           15     1.221      2.123  0.002334626  22.6671         85
 3.50   0.0000    161.4539   1466.8250 -56.59     32927.48     1.946           15     1.907      1.478  0.002337004  16.7561         86
 7.45   0.0001    118.4850   1400.5153 -45.05     24.07018     0.503           15     0.497      1.565  0.002333833  24.5963         87
 4.14   0.0000    128.2079    884.2950  61.77     110.2857     1.036           15     0.870      1.375  0.002335155  22.9437         88
 4.48   0.0000    130.2061    416.2738  57.90     151.3877     1.101           15     1.058      1.046   0.00233674  22.5998         89
 3.50   0.0000    127.2846   1476.9159  64.41      63.8269     0.883           15     0.674      1.132  0.002333568  23.5375         90
 7.54   0.0001    122.6953    867.3505  42.88     24.06139     0.572           15     0.336      2.145  0.002333039  24.5967         91
 5.82   0.0000    141.2148    884.3030  53.18     141.0214     2.257           15     1.011      4.047  0.002335155  22.6768         92
 8.30   0.0001    129.4938    461.4677  78.90     47.24627     0.500           15     0.499      1.920  0.002334362  23.8641         93
 8.04   0.0001    134.2146     97.6234 -71.27     42.14458     0.773           15     0.440      1.419  0.002335419  23.9881         94
 7.04   0.0001    134.3000   1274.6626  43.09     28.12491     0.564           15     0.340      1.557  0.002334362  24.4273         95
 5.36 6453.7422    138.0683   1599.5823 -87.54    2.988e-07     0.784           15     0.493      3.461  0.001775671  44.3615         96
 3.50   0.0000    169.2866    875.6428 -67.51     9927.313     1.819           15     1.776      1.142  0.002335155  18.0579         97
 3.50   0.0000    150.7627   1278.9023  88.63     198.0506     1.165           15     1.082      1.353  0.002333568  22.3081         98
 3.76   0.0000    164.2096   1444.3286  54.24     682.5138     1.483           15     1.350      1.268  0.002337004  20.9647         99
 3.50   0.0000    154.5431     80.6304 -48.07     139.5305     1.064           15     0.916      1.079  0.002336476  22.6883        100
 4.12   0.0000    155.2883   1578.4978  43.34     73.90525     0.954           15     0.835      1.121  0.002333039  23.3783        101
 4.68   0.0000    164.9880    574.8641  77.30     120.7314     1.400           15     1.056      1.597  0.002337004  22.8454        102
 5.62   0.0001    154.6386    822.7695 -65.86     35.63378     0.715           15     0.649      1.504  0.002336212  24.1703        103
 3.50   0.0000    165.7105    102.5929 -26.48     586.6597     1.318           15     1.214      1.011  0.002335155  21.1290        104
 6.06   0.0000    159.1145    491.3987   9.59     70.31934     1.138           15     0.669      2.517  0.002335419  23.4323        105
 3.50   0.0000    258.9319    995.8038 -40.65      86268.3     2.204           15     2.098      1.567  0.002337004  15.7104        106
 4.12   0.0000    168.4684   1367.4351  -7.48     173.4842     1.270           15     1.126      1.253  0.002335948  22.4518        107
 4.57   0.0000    167.9214    649.5799  10.28     128.6982     1.348           15     1.112      1.260  0.002335948  22.7761        108
 4.19   0.0000    179.2146    573.4201  27.59     360.0703     1.835           15     1.464      2.096  0.002335155  21.6590        109
 7.19   0.0000    168.5136    168.5127  44.91     63.17926     0.504           15     0.496      1.727  0.002333833  23.5486        110
 6.62   0.0001    172.7473     30.3737 -74.04     41.96127     0.733           15     0.457      1.689  0.002336476  23.9929        111
 4.98   0.0000    185.8884   1353.4351 -50.81     288.9058     1.540           15     1.480      1.420  0.002335155  21.8981        112
 3.73   0.0000    191.7788   1349.0508 -23.52     910.6072     1.454           15     1.364      1.266  0.002336212  20.6517        113
 6.98   0.0000    182.3312     58.4806 -53.76     88.22539     0.998           15     0.698      2.134  0.002334626  23.1860        114
 3.51   0.0000    209.8881    826.0671  -8.36     3043.324     5.084           15     2.331      6.550  0.002334362  19.3416        115
 6.37   0.0000    186.4666    834.7832 -22.90     61.74221     1.173           15     0.797      2.657  0.002336476  23.5735        116
 7.49   0.0000    183.4922    493.5124  45.64     51.61012     0.502           15     0.498      1.551  0.002333568  23.7682        117
 3.76   0.0000    229.0385    560.6318 -21.14     2785.124     4.057           15     3.727      7.087  0.002336476  19.4379        118
 3.50   0.0000    205.7457    547.4451  43.16      1810.05     1.504           15     1.486      0.943  0.002335419  19.9058        119
 3.50   0.0000    264.9558     65.7548 -47.24     65206.04     2.166           15     2.089      1.539  0.002336476  16.0143        120
 5.84   0.0000    194.7908    447.8324 -36.15     120.9844     1.083           15     0.944      1.297  0.002335683  22.8432        121
 3.50   0.0000    211.4091   1304.6337 -26.38     1704.765     1.499           15     1.466      1.083  0.002335948  19.9708        122
 3.78   0.0000    209.9437    683.1042 -79.21     426.9042     1.701           15     1.387      1.529  0.002333833  21.4742        123
 6.61   0.0000    204.5181    935.3229 -12.18     89.47326     1.135           15     0.833      1.647  0.002334626  23.1708        124
 4.17   0.0000    204.7065    182.1932 -25.93     97.62211     1.089           15     0.881      1.567  0.002335155  23.0761        125
 6.01   0.0001    202.4839     89.5115 -44.61     22.48449     0.504           15     0.495      1.137  0.002334362  24.6703        126
 5.27   0.0000    205.1466    940.4789   2.41     111.1056     0.958           15     0.726      1.019  0.002334362  22.9357        127
 3.50   0.0000    223.2673   1224.6125  77.27     2077.342     1.485           15     1.454      1.058  0.002337004  19.7562        128
 3.50   0.0000    208.2518   1224.0577   1.73     133.9533     1.119           15     0.938      1.150  0.002335419  22.7326        129
 5.84   0.0000    216.7469    881.1780 -58.26     91.00407     1.993           15     0.919      3.143   0.00233674  23.1523        130
 5.06   0.0000    216.7891    739.7996 -42.28     193.7451     1.740           15     1.272      2.865  0.002335419  22.3319        131
 3.50   0.0000    221.6769    773.3261 -19.92     667.8486     1.347           15     1.266      1.039  0.002334626  20.9883        132
 6.40   0.0000    214.2046    791.6280 -30.95      74.0823     1.058           15     0.805      1.742  0.002335419  23.3757        133
 3.80   0.0000    243.0105    111.1027 -85.14     1113.303     2.456           15     1.769      2.306  0.002334626  20.4335        134
 6.03   0.0000    229.3316    546.3625 -56.52      136.931     1.571           15     1.150      2.649  0.002335683  22.7087        135
 3.87   0.0000    254.5541    611.1970 -41.09     2890.746     2.901           15     2.369      2.341  0.002337004  19.3975        136
 7.02   0.0000    220.1687    682.8415 -44.32     52.25064     0.763           15     0.566      1.920   0.00233674  23.7548        137
 7.49   0.0001    220.5158   1401.4570  63.28     47.77586     0.500           15     0.498      1.804  0.002334362  23.8520        138
 3.50   0.0000    238.3814    837.2604  -1.06     361.1116     1.877           15     1.614      1.667  0.002335948  21.6559        139
 3.50   0.0000    232.0374   1551.7699  -3.81     71.73765     0.894           15     0.733      1.082  0.002335948  23.4106        140
 4.19   0.0000    238.9690   1477.4478 -68.19     78.73189     1.284           15     0.920      1.342  0.002336476  23.3096        141
 4.98   0.0000    249.4536    105.7778 -25.74     303.5137     1.390           15     1.286      1.144  0.002336476  21.8446        142
 5.05   0.0000    247.8293   1412.9550  45.17     86.18565     1.292           15     1.086      1.709  0.002337004  23.2114        143
 4.51   0.0000    248.7132    149.7786  84.53     89.37367     1.089           15     0.943      1.160  0.002335419  23.1720        144
 4.00   0.0000    250.4532   1549.4188  83.73     105.3174     1.044           15     1.026      1.570  0.002336476  22.9937        145
 4.20   0.0000    247.9678    561.0486 -36.33     127.7882     0.789           15     0.759      1.025  0.002336476  22.7838        146
 3.50   0.0000    286.7173   1484.9973 -55.73     19669.17     1.881           15     1.858      1.384  0.002335683  17.3155        147
 5.48   0.0000    252.2199    693.4163  70.79     66.55015     0.740           15     0.454      1.394  0.002335683  23.4921        148
 5.93   0.0000    264.0456    722.9035 -78.99     142.0549     1.562           15     1.199      4.159  0.002333304  22.6689        149
 3.50   0.0000    281.0551   1520.9052  81.11     4815.296     1.666           15     1.591      1.216  0.002334097  18.8434        150
 5.10   0.0000    264.5373    122.0890  17.13     168.4122     1.179           15     1.065      1.164  0.002334362  22.4841        151
 4.00   0.0000    270.0479   1272.1320  15.66     332.0293     1.539           15     1.401      1.386  0.002335155  21.7471        152
 5.37   0.0000    261.1555   1207.8530 -41.88     57.23755     0.753           15     0.567      1.199  0.002335683  23.6558        153
 3.50   0.0000    302.1498    199.9401 -75.37     15669.89     1.855           15     1.830      1.286  0.002335155  17.5623        154
 3.50   0.0001    270.4893   1248.9796  87.24     39.99169     0.780           15     0.695      1.192  0.002335419  24.0451        155
 7.75   0.0000    272.1050    724.8120 -49.35     80.60008     0.771           15     0.566      2.101   0.00233489  23.2842        156
 4.98   0.0000    278.5404    555.6594   7.73     73.35983     1.084           15     0.857      1.896  0.002334626  23.3864        157
 3.95   0.0000    292.5155   1474.2145 -31.54     646.6346     1.665           15     1.465      1.313  0.002335683  21.0234        158
 3.82   0.0000    291.4396    246.6860 -47.28     150.7355     1.418           15     1.118      1.223  0.002335419  22.6045        159
 3.50   0.0000    301.2955    561.8904  60.91     844.8826     1.465           15     1.428      1.146  0.002333304  20.7330        160
 5.19   0.0000    307.6783     83.5762  75.52     284.4309     2.177           15     1.431      2.582  0.002335683  21.9151        161
 6.46   0.0001    290.0253      4.5257 -89.48     17.08741     0.769           15     0.499      1.750  0.002121002  24.9683        162
 3.50   0.0000    321.1657    695.6127  53.59     11341.73     1.743           15     1.738      1.128  0.002336476  17.9133        163
 9.10   0.0000    291.5222    780.4791  44.86     100.8817     0.505           15     0.494      2.237  0.002334626  23.0405        164
 7.20   0.0000    291.6669    263.3293  45.17     57.01671     0.575           15     0.334      1.800  0.002334097  23.6600        165
 3.50   0.0000    320.7454    639.8226 -62.29      658.954     2.555           15     1.732      3.141   0.00233674  21.0029        166
 3.90   0.0000    326.5692    593.7253  14.49     1476.016     2.166           15     2.121      1.285  0.002335155  20.1273        167
 6.66   0.0000    310.3911    315.6750  72.62     192.5558     1.428           15     0.935      5.117   0.00233674  22.3386        168
 4.30   0.0000    315.9830    225.2872  -6.63     216.5811     1.332           15     0.993      1.485  0.002335419  22.2109        169
 3.62   0.0001    312.8516   1494.8325  39.78     24.64336     0.738           15     0.561      1.161  0.002336476  24.5707        170
 8.19   0.0001    313.3220    152.6642  44.37     39.72146     0.573           15     0.335      2.392  0.002334097  24.0524        171
 6.43   0.0000    315.3414     14.2794 -48.51     52.04821     0.556           15     0.342      1.936   0.00233489  23.7590        172
 3.80   0.0000    328.4413   1544.6158 -37.14     346.8696     1.213           15     1.130      1.102  0.002336212  21.6996        173
 6.01   0.0000    320.6387    574.5315   7.45     62.27179     0.999           15     0.630      1.657  0.002335683  23.5643        174
 3.50   0.0000    331.3199     91.5482 -34.83     425.9005     1.268           15     1.222      1.060  0.002334097  21.4767        175
 5.95   0.0000    328.1290    242.2957 -59.72     76.59337     0.868           15     0.595      1.655  0.002334362  23.3395        176
 4.45   0.0000    335.1935    621.9893  88.49     63.03264     0.944           15     0.753      1.423  0.002334626  23.5511        177
 6.33   0.0000    335.5202    609.4717  -0.24     63.68449     0.942           15     0.882      2.142  0.002334362  23.5399        178
 3.59   0.0000    349.0351     52.9467 -66.25     961.0113     1.422           15     1.372      1.065  0.002335948  20.5932        179
 3.50   0.0000    367.2389    759.4971  -1.15     11394.62     1.802           15     1.765      1.146  0.002333568  17.9082        180
 3.77   0.0000    340.1328   1502.1542 -46.15     55.16203     0.819           15     0.662      1.293  0.002335419  23.6959        181
 4.92   0.0000    347.0899     40.8089 -59.44      137.232     1.158           15     1.029      1.262   0.00233489  22.7064        182
 3.50   0.0000    394.2315    229.6257 -54.57     39785.49     2.057           15     1.978      1.478  0.002335155  16.5507        183
 3.50   0.0000    360.3792   1498.8553 -12.12     1923.318     1.718           15     1.462      1.138  0.002336212  19.8399        184
 7.19   0.0002    346.3258   1590.3319 -44.73      14.0794     0.573           15     0.336      1.686  0.002333833  25.1785        185
 5.36   0.0000    352.5028   1578.9878 -62.43     83.81194     1.057           15     0.655      2.145  0.002334626  23.2417        186
 3.97   0.0000    374.2932    752.1290  56.00     374.1976     2.569           15     1.473      2.522  0.002334362  21.6172        187
 3.50   0.0000    359.6946   1032.4895 -13.24     455.3343     1.262           15     1.220      1.024  0.002333304  21.4042        188
 6.11   0.0000    358.6622   1046.3120 -45.38     60.64579     1.169           15     0.570      2.171  0.002334362  23.5930        189
 5.44   0.0000    368.4131    208.4631 -52.81      143.592     1.395           15     1.115      1.341  0.002336476  22.6572        190
 3.50   0.0000    372.3944   1082.2750   7.14     345.8509     1.629           15     1.464      1.724  0.002337004  21.7028        191
 3.92   0.0000    369.5137     69.8066 -44.48      220.528     1.445           15     1.327      1.130  0.002335419  22.1913        192
 6.40   0.0000    361.8467     14.8618  45.71      62.4399     0.749           15     0.571      1.946  0.002335155  23.5613        193
 3.50   0.0000    396.2086   1459.7421 -54.51     7937.318     1.712           15     1.666      1.201  0.002337533  18.3008        194
 3.50   0.0000    374.2854     85.5452 -72.82     206.7688     1.104           15     1.035      1.112  0.002334626  22.2613        195
 3.50   0.0000    397.1682    352.8748 -53.61     8992.457     1.770           15     1.701      1.187  0.002335155  18.1653        196
 7.04   0.0000    381.7915      9.4572  73.81     197.0449     1.419           15     1.341      6.926  0.002337533  22.3136        197
 4.69   0.0000    381.4600     65.5889  37.28     237.4271     1.441           15     1.202      1.224   0.00233674  22.1112        198
 4.61   0.0000    379.1580    123.8876  45.20     290.7961     1.191           15     1.143      1.157   0.00233489  21.8910        199
 4.07   0.0000    395.5974    625.2870 -85.57     576.8472     2.341           15     1.901      4.581  0.002335155  21.1473        200
 7.90   0.0000    377.1905    139.6096 -71.64     124.5959     0.746           15     0.451      1.723  0.002334626  22.8112        201
 3.50   0.0000    392.8824   1087.1375  27.39     1861.167     1.486           15     1.466      1.086  0.002334362  19.8755        202
 5.90   0.0001    381.2297   1483.6151 -71.60     23.16074     0.747           15     0.448      1.755  0.002336476  24.6381        203
 3.50   0.0000    388.0510   1193.9819 -63.50     181.9102     1.106           15     1.084      1.266  0.002336212  22.4004        204
 7.07   0.0000    382.6905    248.5649  30.01     85.54588     0.953           15     0.535      1.794  0.002334626  23.2195        205
 3.88   0.0000    467.0059    848.9197  22.74     3577.144     8.896           15     2.327     11.347  0.002335683  19.1662        206
 3.50   0.0000    388.8530    259.2482 -78.61      144.636     1.105           15     0.958      0.921  0.002335683  22.6493        207
 6.18   0.0000    410.8186      2.0812 -88.60     153.0106     3.157           15     0.940      4.741  0.001859553  22.5882        208
 5.53   0.0000    402.6404    524.9610  65.53     253.0315     2.194           15     1.309      2.624  0.002336476  22.0421        209
 3.50   0.0000    390.9092     93.7876 -35.33     153.5963     1.207           15     1.024      1.357  0.002335419  22.5840        210
 7.40   0.0000    385.5190    101.4717  48.45     56.28918     0.501           15     0.498      2.041  0.002334097  23.6739        211
 3.50   0.0000    436.9852    250.2829  79.72     17247.89     1.890           15     1.866      1.258  0.002336212  17.4582        212
 3.50   1.3802    389.8454   1166.6429 -22.19   0.00183849     0.859           15     0.687      1.633  0.002336476  34.8888        213
 7.54   0.0000    393.3536    144.1266 -69.61     59.39052     0.948           15     0.685      2.494   0.00233489  23.6157        214
 5.15   0.0000    391.8290    682.1614  45.39     94.02058     0.806           15     0.665      1.077  0.002336212  23.1169        215
 5.48   0.0001    390.4886   1063.9829  -1.25      32.5492     0.773           15     0.500      1.616  0.002335419  24.2686        216
 3.50   0.0000    460.3279    806.0075 -42.58     98701.05     2.221           15     2.108      1.637   0.00233674  15.5642        217
 3.69   0.0000    412.4981   1560.8722 -62.77     206.3857     1.887           15     0.989      2.360  0.002334097  22.2633        218
 5.89   0.0000    420.6049    132.7225 -31.13     403.5046     3.067           15     2.120      8.439  0.002335948  21.5354        219
 3.54   0.0000    406.1485    280.5370 -33.72     221.0851     1.224           15     1.042      1.009   0.00233489  22.1886        220
 3.95   0.0000    414.0759    557.5613  76.13     204.8844     1.735           15     1.476      2.782  0.002335419  22.2712        221
 4.32   0.0000    419.8092    157.4449  27.82      693.617     2.030           15     1.742      1.918  0.002336476  20.9472        222
 4.01   0.0000    417.8068   1203.0560  79.59     156.9268     1.311           15     1.174      1.554  0.002337797  22.5608        223
 3.50   0.0000    418.4512    772.9766 -80.83     147.8487     1.321           15     1.182      1.220   0.00233674  22.6255        224
 4.73   0.0000    429.8559    717.6064  52.93      344.752     2.427           15     1.950      4.946  0.002337797  21.7062        225
 3.50   0.0000    425.7897   1177.8168  34.44     428.3212     1.948           15     1.538      1.824   0.00233489  21.4706        226
 4.79   0.0000    419.0104   1579.1519 -62.87     210.9084     1.103           15     1.025      1.339   0.00233674  22.2398        227
 7.18   0.0000    413.4969    178.5140 -18.47      82.2226     0.946           15     0.422      1.768  0.002333039  23.2625        228
 3.50   0.0000    432.1183   1420.5703 -17.70     1218.957     1.473           15     1.349      1.003  0.002335683  20.3350        229
 6.44   0.0000    421.7303    630.0159 -32.48     114.7862     1.435           15     0.761      3.299  0.002337004  22.9003        230
 3.91   0.0000    425.2730    298.3065  83.28     203.1155     1.073           15     1.003      0.884  0.002334362  22.2806        231
 3.80   0.0000    419.9532   1090.9773  44.58     105.1489     0.780           15     0.761      1.365  0.002336212  22.9955        232
 3.50   0.0000    449.3105     19.5219  74.88     5663.982     1.773           15     1.669      1.064  0.002333833  18.6672        233
 3.50   0.0000    423.4490   1062.2925  -2.84     170.5651     1.127           15     0.963      1.155  0.002334097  22.4703        234
 3.50   0.0000    433.0534    149.3970   7.79     571.0896     1.415           15     1.311      0.902  0.002337269  21.1582        235
 3.50   0.0000    425.7822   1007.1619 -62.72     104.4224     0.911           15     0.730      1.227  0.002336212  23.0030        236
 5.64   0.0000    434.6851    118.4303  41.53     129.6988     1.671           15     1.529      3.096  0.002335683  22.7677        237
 6.29   0.0000    427.0908    431.4232  -1.39     3943.022     2.861           15     0.918      5.491   0.00233489  19.0604        238
 3.90   0.0000    444.1173    120.4183 -29.24     670.7451     1.781           15     1.609      1.336  0.002335948  20.9836        239
 3.50   0.0000    439.0539    303.9867  66.50     614.4357     1.315           15     1.284      0.979  0.002336476  21.0788        240
 3.50   0.0000    456.8187     32.7341  70.82     6392.493     1.724           15     1.710      1.026  0.002335948  18.5358        241
 4.41   0.0000    432.5092    404.8408 -30.48     135.9492     1.006           15     0.925      1.121  0.002334362  22.7166        242
 4.57   0.0000    432.7831    351.5997  15.45     117.5102     0.946           15     0.927      0.995  0.002335419  22.8748        243
 3.62   0.0000    494.7656     80.8649  81.76     1762.401     4.018           15     2.761      5.162  0.002335683  19.9347        244
 4.84   0.0000    442.8840    653.6072  40.34     181.7781     1.103           15     1.033      1.068  0.002335419  22.4011        245
 4.45   0.0000    442.8301    172.7115  88.14     278.5847     1.148           15     1.116      1.377   0.00233489  21.9376        246
 4.40   0.0000    441.2757    957.8506 -61.66     107.3946     0.953           15     0.842      1.208  0.002334097  22.9725        247
 6.08   0.0001    436.5044     52.4722 -49.01     50.69706     0.502           15     0.497      0.997  0.002334362  23.7875        248
 4.46   0.0000    444.6236   1503.9011 -14.26      71.1952     1.126           15     0.936      1.288  0.002334097  23.4189        249
 3.50   0.0000    462.7142    466.8770  49.46     1865.289     1.637           15     1.523      1.054  0.002333568  19.8731        250
 3.50   0.0000    453.5608   1222.9219 -89.41     145.0447     1.285           15     1.163      1.176  0.002335155  22.6462        251
 3.50   0.0000    452.0468   1531.8091 -15.32      320.567     1.157           15     1.072      1.240   0.00233674  21.7852        252
 4.45   0.0000    450.6599   1129.9233  75.98     53.03664     1.005           15     0.757      1.487   0.00233489  23.7386        253
 3.50   0.0000    470.5975    252.7337  51.39     1625.429     1.949           15     1.492      1.160  0.002337004  20.0226        254
 3.50   0.0000    460.1025   1094.5735  39.55     569.8854     1.472           15     1.289      1.053  0.002334626  21.1605        255
 4.42   0.0000    472.2957   1131.0360  86.34     158.6292     2.434           15     0.883      2.972  0.002333568  22.5490        256
 3.73   0.0000    460.4798    723.4733 -12.02     323.8121     1.954           15     1.308      1.910  0.002334626  21.7743        257
 3.50   0.0000    471.0864    733.2181 -20.84     2360.875     1.564           15     1.502      0.838  0.002335683  19.6173        258
 7.13   0.0001    456.0134    483.0008  -0.12       35.328     0.616           15     0.612      1.042  0.002335419  24.1797        259
 3.50   0.0000    477.0002    921.4136 -44.44     3003.689     1.574           15     1.514      0.881  0.002335683  19.3559        260
 5.41   0.0000    464.4745    127.5481 -21.34     176.5212     1.662           15     1.063      4.333  0.002334097  22.4330        261
 4.63   0.0000    466.0790   1196.8771  82.37     122.6502     1.293           15     1.184      1.580   0.00233489  22.8283        262
 4.60   0.0000    464.8791    559.8110  65.03     141.3463     1.111           15     1.025      1.140  0.002336476  22.6743        263
 3.97   0.0000    488.1440    838.0742  89.99     440.9679     3.081           15     1.221      3.612  0.002334362  21.4390        264
 3.59   0.0000    495.1017   1185.2614 -26.28       1787.3     3.627           15     2.546      5.610  0.002334362  19.9195        265
 3.50   0.0000    477.0024   1275.3066 -41.24     1035.233     1.401           15     1.287      0.802  0.002334626  20.5124        266
 3.50   0.0000    478.1501    680.9755 -68.15       249.63     1.583           15     1.089      1.206   0.00233674  22.0568        267
 5.49   0.0000    471.7985    780.1219  23.97     64.20758     1.141           15     1.009      0.989  0.002336212  23.5310        268
 5.87   0.0000    468.1569    662.1224 -41.41     70.10761     0.822           15     0.674      1.465   0.00233489  23.4356        269
 6.79   0.0000    523.0435    526.4380  43.26     760.4434     8.280           15     1.587     11.645  0.002337004  20.8473        270
 3.50   0.0000    483.0234   1069.1232 -19.22     1346.478     1.413           15     1.352      1.214  0.002335683  20.2270        271
 3.50   0.0000    475.0747   1166.8893   1.65     220.7518     1.109           15     1.094      1.214  0.002333833  22.1902        272
 5.37   0.0000    479.9051   1518.1418 -44.32     148.0632     1.476           15     1.158      2.732  0.002334097  22.6239        273
 5.67   0.0000    483.3888    427.0776  82.65     98.19015     1.653           15     1.022      2.481   0.00233674  23.0698        274
 6.16   0.0000    487.8237    422.9537 -45.68     214.1996     2.156           15     1.022      4.581  0.002336476  22.2230        275
 3.73   0.0000    503.2410    761.2144  -2.13     1006.315     2.403           15     2.129      2.334  0.002336212  20.5432        276
 5.79   0.0000    485.3780    827.2343  57.86     74.52527     1.008           15     0.787      0.925  0.002336212  23.3692        277
 7.28   0.0001    484.1762    253.5986 -69.93     47.27319     0.743           15     0.446      1.261  0.002335419  23.8635        278
 3.50   0.0000    514.5488   1459.5911  24.88     2336.376     4.883           15     1.883      6.142  0.002337004  19.6286        279
 6.71   0.0001    484.2317   1228.0292  -1.30      23.2505     0.690           15     0.422      1.394  0.002336212  24.6339        280
 4.79   0.0000    492.2632    572.9794 -16.71     137.7226     1.050           15     0.997      1.231  0.002336476  22.7025        281
 6.04   0.0000    484.5475    941.4948  -5.25      54.8263     0.500           15     0.498      1.121  0.002334097  23.7025        282
 3.50   0.0000    501.1269    862.1903 -17.16     675.4323     1.336           15     1.329      0.813   0.00233674  20.9760        283
 3.64   0.0000    497.0682    364.6263  11.30     300.6401     1.271           15     1.121      1.014  0.002335948  21.8549        284
 3.50   0.0000    494.4056   1419.9213   1.55     100.5449     1.199           15     0.975      1.371  0.002335683  23.0441        285
 3.78   0.0000    501.8901    441.4094 -66.80     93.08817     1.009           15     0.950      0.961   0.00233489  23.1278        286
 3.96   0.0000    509.0426    162.5734  -5.36     684.7007     2.512           15     1.346      3.356  0.002337004  20.9612        287
 3.50   0.0000    504.2511   1567.6315 -38.85     127.3595     0.949           15     0.848      1.158  0.002336212  22.7874        288
 7.21   0.0000    504.4323    324.4166  47.51     111.2263     1.010           15     0.880      2.873  0.002336212  22.9345        289
 3.50   0.0000    512.9017   1177.8131 -36.73     754.1703     1.383           15     1.305      1.180  0.002334362  20.8563        290
 4.95   0.0000    509.1056    451.7625   7.68     142.2496     1.322           15     1.185      1.199  0.002333568  22.6674        291
 7.94   0.0000    517.7452    511.2664  11.30     634.9205     3.507           15     1.876     16.144   0.00233489  21.0432        292
 3.60   0.0000    518.2604    640.3267 -36.44     518.4763     1.615           15     1.460      1.295  0.002334626  21.2632        293
 6.07   0.0000    508.4023    306.9001  -7.95     109.5796     1.125           15     0.869      1.253  0.002334626  22.9507        294
 3.50   0.0000    517.3778   1517.8356  35.42     259.3484     1.174           15     1.149      1.209  0.002335683  22.0153        295
 7.50   0.0001    509.7283    323.9872   2.24     39.38835     0.727           15     0.687      1.553  0.002337269  24.0616        296
 4.43   0.0000    519.7961    852.2990 -59.27     162.3223     1.298           15     1.239      1.330  0.002335155  22.5241        297
 5.29   0.0002    510.5995    804.8353  19.73     11.36267     0.751           15     0.445      0.867   0.00233489  25.4113        298
 6.34   0.0000    516.0259    165.0438  45.64     62.40094     0.900           15     0.528      1.643  0.002337004  23.5620        299
 6.07   0.0000    519.4959    580.8430 -88.06     65.58628     0.949           15     0.742      1.945  0.002333833  23.5080        300
 7.37   0.0001    519.0303    828.0000  90.00      38.7354     0.844           15     0.289      2.211  0.002335155  24.0797        301
 6.40   0.0000    528.0432    163.3432  63.65     139.2589     1.366           15     0.878      2.156  0.002335419  22.6904        302
 3.50   0.0000    539.3125    998.3308 -70.15     1916.357     1.496           15     1.464      0.971  0.002333833  19.8438        303
 3.50   0.0000    535.0587    402.7667  29.09       317.24     1.782           15     1.367      1.779  0.002336212  21.7965        304
 7.39   0.0002    523.4650   1056.4950  39.78     15.91159     0.503           15     0.496      1.520   0.00233489  25.0457        305
 7.81   0.0001    523.3696    328.6750  46.62     38.61559     0.589           15     0.325      1.862  0.002335155  24.0831        306
 8.00   0.0001    522.5049    307.4648 -47.00      29.2875     0.508           15     0.491      2.451   0.00233489  24.3833        307
 3.50   0.0000    543.1098    932.6140 -66.87     214.9614     2.276           15     1.033      2.961  0.002335419  22.2191        308
 3.50   0.0000    530.7483   1565.1761  52.13     79.24782     1.007           15     0.876      1.344  0.002337004  23.3025        309
 8.52   0.0000    535.6012    282.7721  18.10     81.14157     0.762           15     0.451      1.825  0.002335155  23.2769        310
 3.50   0.0000    558.0438   1040.2253 -10.82     2540.064     1.658           15     1.518      1.023  0.002337004  19.5379        311
 4.11   0.0000    545.2867    849.4889  -7.56     74.90011     0.978           15     0.941      1.131  0.002333833  23.3638        312
 3.50   0.0000    570.6830   1446.9780  21.21     1397.245     3.175           15     1.983      3.933  0.002335683  20.1868        313
 3.58   0.0000    570.2360     44.0888  49.34     1560.642     2.465           15     1.670      2.286   0.00233489  20.0667        314
 3.50   0.0000    581.1932    317.4510  36.34     11008.67     1.850           15     1.780      1.108  0.002337269  17.9457        315
 3.50   0.0000    595.7388    781.1646 -53.99     4277.219     4.027           15     3.742      6.909  0.002335683  18.9721        316
 3.50   0.0000    554.9998    777.1379  23.82     217.3556     1.097           15     1.073      1.102  0.002337269  22.2071        317
 4.97   0.0000    552.7537    964.6179  15.66     56.27761     0.970           15     0.849      1.353  0.002336212  23.6742        318
 4.66   0.0000    558.3875   1067.7920  68.17     91.64911     1.435           15     0.962      1.834  0.002334362  23.1447        319
 3.50   0.0000    579.6480    143.1500 -58.36     11265.81     1.754           15     1.733      1.120  0.002336476  17.9206        320
 4.49   0.0000    563.8175    137.7232  87.54     446.0528     1.330           15     1.274      1.053  0.002336476  21.4265        321
 5.06   0.0000    553.9767    804.0146 -87.43     94.74342     0.783           15     0.774      1.233  0.002335419  23.1086        322
 3.50   0.0000    562.0294    904.3720  80.63     139.5166     1.041           15     0.921      1.229  0.002335948  22.6884        323
 3.50   0.0000    561.8600    839.1838 -53.60     99.76187     1.294           15     0.879      1.452  0.002335683  23.0526        324
 3.50   0.0001    560.1254   1502.6388  23.06      45.0566     0.894           15     0.691      1.704  0.002335419  23.9156        325
 4.91   0.0000    565.9980    630.5018 -86.15     140.2512     1.041           15     0.936      1.151  0.002334626  22.6827        326
 5.07   0.0000    563.3189   1168.8239 -30.08      60.0341     1.068           15     0.867      1.452  0.002335419  23.6040        327
 3.50   0.0000    575.3149   1000.2518  -7.06     434.5172     1.714           15     1.663      1.614  0.002334362  21.4550        328
 7.83   0.0000    561.3547    592.7009  47.59     53.36082     0.571           15     0.336      1.349  0.002333304  23.7319        329
 5.66   0.0000    569.1500    112.3426 -73.84     93.65192     1.172           15     0.953      1.247  0.002335419  23.1212        330
 5.71   0.0000    566.4100   1114.6133  46.61     68.20395     1.050           15     0.943      1.245   0.00233489  23.4655        331
 4.90   0.0000    577.0280    737.8564  48.00     219.3186     1.612           15     1.310      2.201  0.002336476  22.1973        332
 8.45   0.0001    568.1769    708.6044 -71.44     46.19824     0.754           15     0.449      2.549  0.002335683  23.8884        333
 8.26   0.0001    569.7484   1108.5880  71.27     45.82129     0.744           15     0.454      1.182   0.00233674  23.8973        334
 3.50   0.0000    583.4813     74.1986  10.29     620.7451     1.347           15     1.333      0.955  0.002335683  21.0677        335
 5.09   0.0000    578.4113    677.8210  22.34     194.7298     1.402           15     1.334      2.170  0.002335419  22.3264        336
 7.87   0.0001    569.6768   1177.3270  44.82     43.25648     0.570           15     0.337      1.154  0.002334362  23.9599        337
 4.18   0.0000    577.8083    843.5394  25.45     212.9558     1.924           15     0.938      2.551  0.002337269  22.2293        338
 5.03   0.0000    582.9647   1099.5007 -84.67     90.37437     1.120           15     0.943      1.489  0.002333039  23.1599        339
 6.42   0.0001    578.2901   1555.9840   1.82     45.71447     0.741           15     0.685      2.619  0.002335948  23.8999        340
 4.53   0.0000    577.9370    694.9725  48.92     58.57089     0.801           15     0.764      1.315  0.002335948  23.6308        341
 4.82   0.0000    584.4144   1171.3855  -1.89     258.2471     1.179           15     1.032      1.118  0.002335683  22.0199        342
 3.50   0.0001    581.6339   1485.3854  21.71     46.30314     0.912           15     0.784      1.029  0.002335948  23.8860        343
 6.18   0.0000    582.4998   1183.7992  89.49     72.22783     0.953           15     0.734      1.493  0.002334626  23.4032        344
 4.65   0.0000    583.6606    209.6291  40.48     93.27576     0.987           15     0.861      1.129  0.002336212  23.1256        345
 4.42   0.0000    587.5736   1137.8688 -13.33     151.9142     1.083           15     0.927      1.203  0.002335948  22.5960        346
 3.50   0.0000    997.2496    231.6882 -45.29     600.4706     1.224           15     1.171      1.011  0.002334626  21.1038        347
 4.05 5431.4619   1598.6630    709.2861   9.93 3.776713e-07     1.297           15     0.906      4.236  0.001888865  44.1072        348
 3.87   0.0000   1596.5690    653.1470 -22.43     373.2042     2.116           15     2.027      3.628  0.002112254  21.6201        349
 5.35   0.0399   1599.1135     17.0033   3.58   0.04998387     1.930           15     0.883      4.704  0.001834152  31.3029        350
 3.50   0.0000   1593.4668    372.3284  55.11     490.5679     1.717           15     1.436      1.208  0.002323495  21.3233        351
 8.55   0.0980   1593.4902    299.4875  45.17   0.02573378     0.505           15     0.494      3.032  0.002322963  32.0237        352
 4.98   0.0000   1590.3221    565.2692  12.11     280.8251     1.092           15     1.011      0.882  0.002334097  21.9289        353
 3.50   0.0000    911.7668    837.0069  37.08     966.8795     1.357           15     1.306      1.148  0.002336212  20.5866        354
 3.50   0.0000    911.3060    999.6720  41.10     602.8026     1.275           15     1.193      1.125  0.002334362  21.0996        355
 7.13   0.0001    911.4838    457.5414 -54.36     47.47859     0.501           15     0.497      1.033  0.002334362  23.8588        356
 5.46   0.0000    909.3326   1573.9622  -1.62     119.3997     1.187           15     0.985      1.382  0.002335683  22.8575        357
 6.56 227.8979    909.2680    758.5991 -71.29 1.113525e-05     0.749           15     0.451      3.548   0.00233674  40.4333        358
 4.97   0.0000    907.7683      3.5539 -14.98     169.1244     1.360           15     1.087      1.231  0.002026039  22.4795        359
 4.78   0.0000    907.0880    657.8474  43.83     260.9324     1.224           15     1.188      1.334  0.002334362  22.0087        360
 5.15   0.0000    903.2182    733.5340   9.95     150.5043     0.955           15     0.910      1.377  0.002335948  22.6061        361
 3.50   0.0000    899.4390    301.1291 -80.61     7138.792     1.702           15     1.662      1.101  0.002335948  18.4159        362
 4.10   0.0000    895.2021    537.0020   7.34     1389.102     2.368           15     1.975      2.417  0.002336212  20.1932        363
 4.97   0.0000    899.0763    449.6744 -77.69     113.1668     0.724           15     0.653      1.235  0.002334362  22.9157        364
 3.50   0.0000    898.5994    378.3530 -44.10     205.0771     0.990           15     0.831      0.920  0.002337269  22.2702        365
 4.10   0.0000    896.2010    985.9032 -65.25     254.8414     1.351           15     1.097      1.183  0.002335155  22.0343        366
 5.56   0.0000    897.4781    727.9805  88.29      94.4426     0.805           15     0.694      1.272  0.002335948  23.1121        367
 3.50   0.0000    892.9716   1424.8125 -15.52     424.2057     1.351           15     1.273      1.166  0.002336212  21.4811        368
 6.66   0.0000    894.1008   1570.1140  -5.93     110.7626     0.903           15     0.752      1.487  0.002333039  22.9390        369
 3.50   0.0000    879.3787   1591.1538 -61.95     58943.93     2.168           15     2.039      1.898  0.002336212  16.1239        370
 4.46   0.0000    887.5934    324.2536  13.11     819.5878     2.340           15     1.681      2.649  0.002337797  20.7660        371
 3.50   0.0000    887.7297    679.5148 -40.64     234.0851     1.477           15     1.211      1.215  0.002334097  22.1266        372
 4.91   0.0000    888.2026    989.3426  74.42     89.14475     0.743           15     0.447      0.937  0.002337533  23.1748        373
 3.50   0.0000    884.8283   1498.8029 -52.49     919.0716     1.369           15     1.303      1.152  0.002335155  20.6416        374
 7.89   0.0000    886.6957     12.8619 -31.06     143.7287     0.871           15     0.603      2.969  0.002334362  22.6561        375
 4.96   0.0000    883.8883    337.2994  26.21     474.0152     2.126           15     1.367      1.709  0.002333039  21.3605        376
 6.01   0.0000    882.2828    443.6931  43.66     105.0961     0.929           15     0.755      1.630  0.002334362  22.9960        377
 3.50   0.0000    878.5623    670.3323 -29.28     251.1705     1.541           15     1.411      1.867  0.002335683  22.0501        378
 3.50   0.0000    876.6171    959.5079 -84.97     602.3367     1.313           15     1.221      1.009  0.002335683  21.1004        379
 4.17   0.0000    875.3675    540.0736 -52.92     244.2462     1.228           15     1.154      1.159  0.002335155  22.0804        380
 3.50   0.0000    868.4330   1102.0598 -58.26     2413.734     2.101           15     1.883      1.434  0.002335948  19.5933        381
 3.50   0.0000    866.6846    937.9059  43.74     1000.768     2.551           15     1.559      2.732  0.002333039  20.5492        382
 3.51   0.0000    868.3862    642.1344  64.38     330.7356     1.210           15     1.086      0.979  0.002336212  21.7513        383
 4.22   0.0000    868.9890   1434.9382   8.40     66.83155     0.789           15     0.771      1.426   0.00233674  23.4875        384
 3.50   0.0000    865.7738    453.0959 -34.74     203.8492     1.249           15     1.052      1.248   0.00233489  22.2767        385
 6.69   0.0000    865.8105    814.8402  45.71     62.76165     0.755           15     0.565      1.574  0.002335948  23.5558        386
 3.50   0.0000    863.9717   1477.8020  47.20     163.3612     1.104           15     0.957      1.160  0.002335155  22.5171        387
 6.05   0.0000    863.2298    772.0787   9.48     117.0577     1.229           15     0.837      1.888  0.002335155  22.8790        388
 6.00   0.0000    863.3828    353.6020 -41.03     190.8577     1.104           15     1.056      1.268  0.002335155  22.3482        389
 3.60   0.0000    859.6398   1552.9725  32.19     188.3273     1.150           15     0.969      1.294   0.00233674  22.3627        390
 5.32   0.0000    861.0913    635.3052  14.32     115.0164     1.011           15     0.758      1.333  0.002333304  22.8981        391
 3.56   0.0000    857.4694   1338.8175 -83.90     713.4415     1.515           15     1.139      2.009   0.00233674  20.9166        392
 6.75   0.0000    857.6943    572.8384 -30.47     248.1452     1.643           15     0.828      2.977  0.002333568  22.0632        393
 4.47   0.0000    854.6429    543.5765 -83.93     303.8916     1.620           15     1.272      1.485  0.002336476  21.8432        394
 7.47   0.0000    854.8518   1428.6575 -19.18     113.4674     0.936           15     0.687      2.038  0.002335419  22.9128        395
 7.03   0.0000    854.9913    685.0031  44.01     77.51223     0.917           15     0.527      1.810   0.00233489  23.3266        396
 6.30   0.0000    854.0575   1346.4348  -1.76     76.17134     1.031           15     0.778      1.133  0.002336212  23.3455        397
 8.11   0.0000    848.1615   1458.6028 -70.78      98.4589     0.749           15     0.448      2.390  0.002335419  23.0669        398
 5.44   0.0000    845.5035    359.5220  -0.72      465.232     2.429           15     1.517      4.654  0.002333568  21.3808        399
 5.62   0.0000    846.7170   1562.2915  43.97     116.7172     0.950           15     0.758      1.707  0.002334362  22.8822        400
 3.50   0.0000    843.9012   1062.4146 -66.92     571.7035     1.301           15     1.236      0.852   0.00233489  21.1571        401
 3.50   0.0000    842.4259   1104.7003  22.34     1080.505     1.906           15     1.505      1.224  0.002334097  20.4659        402
 6.66   0.0001    841.5247   1496.4906 -43.64      20.4228     0.505           15     0.494      1.712  0.002334097  24.7747        403
 6.07   0.0000    839.9100    545.6880 -21.12     119.6325     0.926           15     0.682      1.316  0.002333568  22.8554        404
 6.04   0.0000    837.6153    898.6021 -45.38     152.7472     1.306           15     0.920      4.121   0.00233489  22.5901        405
 3.75   0.0000    836.8246    990.4081 -12.66     235.4148     1.280           15     1.129      1.242  0.002335683  22.1204        406
 3.53   0.0000    835.5173    297.0655 -20.69     1567.072     1.495           15     1.463      0.950  0.002334097  20.0623        407
 3.50   0.0000    835.7843   1519.0624 -39.63      241.442     1.127           15     1.066      1.237  0.002335419  22.0930        408
 3.98   0.0000    837.2092    493.1678  48.61     69.87791     0.754           15     0.560      1.308  0.002335683  23.4391        409
 3.50   0.0000    834.6255    817.6036 -27.42     390.1875     1.268           15     1.168      1.084  0.002335683  21.5718        410
 7.50   0.0001    830.7031   1057.6530 -42.52     31.18918     0.567           15     0.338      1.058  0.002333833  24.3150        411
 3.50   0.0000    822.0405    652.7586  85.30     7022.288     1.746           15     1.732      1.170  0.002336476  18.4338        412
 5.72   0.0001    825.9630    597.2975 -84.25     34.87541     0.742           15     0.655      1.082  0.002333568  24.1937        413
 5.03   0.0000    823.8604    673.1241  46.31     100.7697     0.816           15     0.675      0.848   0.00233489  23.0417        414
 4.87   0.0000    821.1362    329.1507 -67.93     163.8753     1.078           15     0.889      1.172  0.002335155  22.5137        415
 3.50   0.0000    818.8892   1397.0544 -48.02     192.5031     1.092           15     1.066      1.302  0.002334362  22.3389        416
 5.77   0.0000    818.5394   1574.0371 -89.97     66.51315     0.830           15     0.677      1.305  0.002335948  23.4927        417
 3.50   0.0000    818.0869    777.6884 -59.95     190.1061     1.301           15     0.812      1.203  0.002333833  22.3525        418
 3.50   0.0000    817.9457    701.0985  -5.51     263.2265     1.097           15     1.081      0.696  0.002333568  21.9992        419
 7.36   0.0000    818.4551    745.4847 -23.72      72.6119     0.500           15     0.498      1.018  0.002334362  23.3975        420
 3.50   0.0000    814.6820    876.8912  83.13     324.8434     1.619           15     1.437      1.845   0.00233489  21.7708        421
 7.19   0.0001    816.5349    598.5266 -41.32     36.46513     0.501           15     0.497      1.085  0.002333833  24.1453        422
 7.47   0.0000    814.3469   1579.6925  46.82     64.06943     0.572           15     0.336      1.336  0.002334626  23.5334        423
 3.50   4.7869    808.9901   1543.1663  57.55 0.0005300787     1.137           15     1.038      3.121  0.002336476  36.2391        424
 3.77   0.0000    808.5916    842.6827 -70.52     94.19332     0.920           15     0.796      1.031  0.002335419  23.1149        425
 7.40   0.0001    826.0179    666.4922  87.95     45.74649     0.789           15     0.499      1.206  0.002335419  23.8991        426
 3.50   0.0000    802.1636   1377.2766 -69.95     6708.479     1.739           15     1.653      1.269  0.002335155  18.4834        427
 3.50   0.0000    797.5835    694.0687 -87.98     18373.43     2.545           15     1.808      1.974   0.00233674  17.3895        428
 3.50   0.0000    799.6691     39.3040 -28.12     3114.433     1.835           15     1.553      0.949  0.002334626  19.3166        429
 7.12   0.0016    800.7286   1595.2339 -83.27     1.523575     0.877           15     0.736      4.644  0.002224693  27.5928        430
 4.92   0.0000    793.4503    294.0375 -70.62      182.328     1.478           15     1.245      1.510  0.002335683  22.3979        431
 4.48   0.0000    785.3294   1347.5825  22.86     99.21773     0.894           15     0.784      1.049  0.002337004  23.0585        432
 3.50   0.0000    773.2655   1425.9480 -89.65     2159.111     3.784           15     2.258      4.679   0.00233489  19.7143        433
 7.68   0.0001    778.2869   1366.3440 -41.95     34.04716     0.561           15     0.340      1.340  0.002334362  24.2198        434
 4.15   0.0000    767.0460    138.3301 -52.97     369.4618     1.583           15     1.421      1.345  0.002335155  21.6311        435
 4.13   0.0000    766.5136    928.8768  38.28     161.5812     1.228           15     1.125      1.427  0.002333568  22.5290        436
 5.64   0.0001    763.7714   1010.5909  70.35     19.36826     0.752           15     0.448      2.037  0.002335948  24.8323        437
 3.80   0.0000    763.4185    565.9872 -13.82      155.429     1.123           15     0.932      1.207  0.002335155  22.5712        438
 6.29   0.0001    762.5087   1570.5132 -45.38      47.7048     0.504           15     0.496      1.690  0.002333304  23.8536        439
 3.50   0.0000    756.6418   1339.8202 -44.27     230.4503     2.010           15     1.078      2.438  0.002336212  22.1436        440
 6.23   0.0001    760.0000     26.9865   0.00     48.25915     0.841           15     0.289      1.574  0.002335683  23.8410        441
 6.10   0.0000    758.4919    540.5501  71.30     53.31623     0.500           15     0.497      1.006  0.002334626  23.7329        442
 6.14   0.0000    757.2057    104.3232 -63.52     153.8502     1.183           15     0.878      2.067  0.002336212  22.5823        443
 4.77   0.0000    753.7409    194.2237  73.67     533.7834     2.089           15     1.885      3.362   0.00233674  21.2316        444
 8.69   0.0000    753.5062    163.4729  54.27      106.475     0.501           15     0.499      3.004  0.002334362  22.9819        445
 3.50   0.0000    751.6177   1078.6733 -49.43     172.3089     1.049           15     0.894      1.134  0.002337004  22.4592        446
 6.17   0.0000    746.5098   1108.5312  63.90     104.8922     0.500           15     0.499      1.023  0.002334097  22.9981        447
 6.86   0.0000    743.6674    839.2261 -14.91     142.0135     1.556           15     1.424      2.219  0.002335948  22.6692        448
 6.82   0.0000    744.9663    833.1716 -60.35     105.4023     1.296           15     0.703      1.669  0.002335683  22.9929        449
 3.50   0.0000    741.8320    554.6772 -39.16     1629.166     1.561           15     1.487      1.037  0.002335419  20.0201        450
 5.23   0.0000    740.4767    917.9953   2.65     62.92981     0.790           15     0.499      0.975  0.002336212  23.5529        451
 7.52   0.0000    740.0164    120.9847  43.44     71.25064     0.897           15     0.533      1.927  0.002335683  23.4180        452
 3.50   0.0000    738.4908   1271.3293  50.55     120.9394     1.129           15     0.783      1.025  0.002334097  22.8436        453
 3.50   0.0000    737.0901   1156.6693 -48.76      571.131     1.334           15     1.239      1.081  0.002334097  21.1582        454
 3.50   0.0000    725.6448    846.8090  -7.86     50990.34     2.097           15     2.054      1.499  0.002336476  16.2813        455
 3.65   0.0000    735.0936    648.1337  23.03     632.4479     1.318           15     1.295      0.934   0.00233489  21.0474        456
 8.11   0.0001    732.6801     95.6732 -44.66     34.42017     0.569           15     0.338      2.183  0.002334362  24.2080        457
 6.37   0.0000    729.0677    751.7094  80.09     99.98588     1.365           15     0.981      2.729  0.002334626  23.0502        458
 3.50   0.0000    726.5311   1176.7495 -35.99       1110.1     1.429           15     1.386      1.127  0.002334626  20.4366        459
 3.50   0.0000    727.9199   1542.3888 -15.42      133.109     0.986           15     0.734      1.465  0.002336212  22.7395        460
 3.50   0.0000    720.4927   1393.5994   9.55     444.7159     1.518           15     1.228      1.255   0.00233489  21.4298        461
 4.16   0.0000    721.3461    260.6544 -42.64     71.28902     1.000           15     0.874      1.244  0.002335683  23.4174        462
 3.50   0.0000    714.8609    806.8423  -2.38     1416.309     1.455           15     1.417      1.081  0.002335683  20.1721        463
 3.50   0.0000    708.0568   1162.3644  26.22     1455.808     1.433           15     1.425      0.940  0.002336212  20.1422        464
 5.73   0.0000    709.3891    193.4375  40.52     148.8973     1.344           15     0.904      2.147  0.002335948  22.6178        465
 3.50   0.0000    703.9356   1337.5789 -23.86     1395.505     1.923           15     1.716      1.734  0.002336476  20.1882        466
 3.50   0.0000    701.9492    950.9857 -47.38     2590.222     1.657           15     1.554      1.192  0.002336476  19.5167        467
 6.47   0.0000    704.7883    610.4393 -69.74     64.97204     0.748           15     0.451      1.487  0.002335948  23.5182        468
 9.49   0.0000    704.5004    603.4854  45.59     76.66131     0.505           15     0.495      2.023  0.002332774  23.3386        469
 4.95   0.0001    702.0414    632.4601 -88.06     33.34695     0.779           15     0.498      0.871  0.002335683  24.2424        470
 4.70   0.0000    700.7255    649.7046   6.57     127.6981     0.872           15     0.730      1.244  0.002334097  22.7845        471
 4.33   0.0000    698.0079    581.0506   7.20     643.4341     2.452           15     1.406      2.784   0.00233674  21.0287        472
 6.01   0.0000    696.0611   1199.0391  43.72     77.91846     0.870           15     0.534      1.099  0.002335948  23.3209        473
 4.69   0.0000    695.5093    275.3404 -46.91     95.32767     0.986           15     0.852      1.080  0.002334362  23.1020        474
 3.50   0.0000    690.7094   1212.3370  27.32     530.7407     1.686           15     1.398      1.412   0.00233489  21.2378        475
 3.66   0.0000    685.6292   1212.3170 -33.84     390.9152     1.434           15     1.221      1.270  0.002335683  21.5698        476
 5.83   0.0000    688.5665    666.8993  63.34     80.03565     1.115           15     0.571      1.822  0.002333304  23.2918        477
 3.50   0.0000    684.5398    642.6752  87.93     2104.529     1.766           15     1.607      1.073   0.00233489  19.7421        478
 3.50   0.0000    686.5308    129.1957 -68.45     328.4646     1.223           15     1.196      1.003   0.00233674  21.7588        479
 5.73   0.0000    686.2995   1043.4269  30.75     64.86174     0.952           15     0.535      0.990  0.002334097  23.5200        480
 5.42   0.0000    683.1298   1564.1483 -47.55     75.80554     0.822           15     0.675      1.565  0.002334626  23.3507        481
 6.08   0.0000    676.3761    199.5712  13.36     168.9265     0.953           15     0.802      1.240  0.002336212  22.4808        482
 4.68   0.0000    674.9570   1163.1389   1.41     105.3902     0.922           15     0.752      1.369  0.002335683  22.9930        483
 5.20   0.0000    671.9014    229.6995  15.79     181.3867     1.295           15     1.123      1.340  0.002333039  22.4035        484
 4.73   0.0000    668.2267   1219.9330 -72.28     269.2151     1.552           15     1.476      1.555  0.002335948  21.9748        485
 3.50   0.0000    665.8259   1178.7189 -40.54     173.0822     1.093           15     0.993      1.171  0.002335683  22.4544        486
 3.50   0.0000    665.4391   1068.4222  47.82     91.29237     0.996           15     0.849      1.130  0.002336212  23.1489        487
 5.63   0.0000    661.9385     80.7697   1.93     63.75877     0.935           15     0.741      1.219  0.002335683  23.5386        488
 3.50   0.0000    647.4389   1462.9244 -65.59     50111.12     2.037           15     1.961      1.574  0.002335419  16.3002        489
 3.50   0.0000    653.7341    869.2440 -79.26     643.1813     1.350           15     1.294      0.899  0.002335419  21.0292        490
 5.79   0.0000    649.5131   1159.3684 -16.72     187.7854     1.370           15     0.895      3.478  0.002335683  22.3658        491
 6.88   0.0000    646.1511   1152.8936  42.08      107.962     0.842           15     0.668      4.102  0.002333833  22.9668        492
 4.22   0.0000    644.7935    651.3754 -43.14     415.9819     1.260           15     1.213      0.981  0.002335948  21.5023        493
 3.77   0.0000    640.2954    274.9318 -31.11     224.2375     1.431           15     1.143      1.161  0.002334626  22.1732        494
 8.22   0.0000    636.3994    646.2070  18.43     89.14812     0.738           15     0.454      1.850  0.002334626  23.1747        495
 3.50   0.0000    629.7290    804.6356  57.35     683.1421     1.350           15     1.286      1.042  0.002335948  20.9637        496
 3.74   0.0000    630.3717    853.8051 -21.83     74.36871     1.097           15     0.864      1.207  0.002335419  23.3715        497
 7.34   0.0001    631.4945     67.4600 -47.93     27.61241     0.507           15     0.491      1.795  0.002334626  24.4472        498
 3.74   0.0000    628.4153    940.7636 -89.84     70.26682     0.921           15     0.723      1.192  0.002336476  23.4331        499
 4.76   0.0000    625.8838    131.8191 -48.86     74.83937     0.824           15     0.662      1.678  0.002335948  23.3647        500
 3.50   0.0000    622.6722   1580.3530  13.42     1154.439     1.404           15     1.392      1.587   0.00233489  20.3941        501
 6.21   0.0000    623.8245    342.7149  -2.09     96.02148     1.409           15     0.958      3.543  0.002335419  23.0941        502
 6.77   0.0001    622.9836   1077.7542 -89.17     42.74825     0.681           15     0.431      1.459  0.002336212  23.9727        503
 3.93   0.0000    617.2480   1150.4281 -12.62     488.4529     2.264           15     1.413      2.675   0.00233674  21.3279        504
 6.42   0.0000    618.4886     93.1191 -24.56     116.5437     1.296           15     0.928      1.768  0.002334097  22.8838        505
 3.50   0.0000    615.5873    117.1058 -73.71     109.0687     0.996           15     0.741      1.285  0.002335155  22.9557        506
 6.45   0.0000    614.1473    288.1104 -44.13     100.0456     0.829           15     0.670      1.535  0.002334626  23.0495        507
 3.50   0.0000    610.6261    994.0863  11.42     96.01437     1.191           15     0.958      1.428  0.002335419  23.0942        508
 4.69   0.0000    610.1751    961.7780  47.60     53.17166     0.783           15     0.668      1.180  0.002335948  23.7358        509
 3.50   0.0000    608.5443    943.9086  56.12     268.7453     1.224           15     1.041      1.195  0.002334626  21.9766        510
 3.85   0.0000    606.5277   1009.5539 -58.11     76.66447     0.877           15     0.866      1.029   0.00233489  23.3385        511
 4.16   0.0000   1549.9468   1220.6351 -20.50     805.2043     1.343           15     1.207      1.085  0.002335948  20.7852        512
 6.28   0.0000    601.7976    763.1484  43.05     62.61198     0.822           15     0.670      1.530  0.002337269  23.5584        513
 6.16   0.0000    598.2532    666.6846 -64.17     121.0363     1.102           15     0.879      1.682  0.002334362  22.8427        514
 7.79   0.0000    597.5762    356.2335 -19.64     62.68733     0.750           15     0.451      1.475  0.002335683  23.5571        515
 5.22   0.0000    595.9668   1124.0195 -47.83     63.39876     0.796           15     0.776      1.588  0.002335948  23.5448        516
 4.76   0.0000    592.9527    881.0997  71.90     131.4499     1.216           15     1.099      1.443   0.00233251  22.7531        517
 4.55   0.0000   1592.2823   1383.2466 -13.85     356.7586     1.577           15     1.129      1.335  0.002334626  21.6691        518
 7.21   0.0000   1552.9554   1231.5959  13.49     304.6203     0.995           15     0.749      5.740   0.00233674  21.8406        519
 3.50   0.0000   1537.6016    261.7690 -29.95     293.0371     1.069           15     0.936      1.124  0.002335155  21.8827        520
 3.50   0.0000   1583.9220   1107.3612  85.22     2085.809     1.498           15     1.458      0.856  0.002335155  19.7518        521
 4.35   0.0000   1540.0454    328.3197  81.88     149.2333     0.726           15     0.669      0.723  0.002334626  22.6153        522
 5.51   0.0000   1584.9178   1068.0917 -37.01     555.9841     1.158           15     1.085      1.180   0.00233489  21.1873        523
 4.03   0.0000    913.7258   1117.9800  42.96     106.7523     1.246           15     1.027      1.411  0.002337004  22.9791        524
 4.22   0.0000   1588.2579   1334.4188  70.40     110.7197     0.713           15     0.458      0.972  0.002335948  22.9394        525
 3.50   0.0000   1580.4093   1412.8579  60.15      401.293     1.414           15     1.199      1.588  0.002337533  21.5413        526
 6.55   0.0000   1533.5857    973.8729 -43.07     449.3443     1.651           15     1.063      6.419  0.002337533  21.4186        527
 3.64   0.0000   1531.6093    414.0499   4.17     745.3755     1.816           15     1.594      1.777  0.002337004  20.8691        528
 3.50   0.0000   1574.2081   1489.8723  48.88     449.0246     1.095           15     0.982      1.251  0.002336212  21.4193        529
 5.69   0.0000   1585.3643    639.9449  55.17     225.1676     1.009           15     0.831      1.869  0.002335948  22.1687        530
 4.30   0.0000   1570.4762   1337.0015  61.32     194.1297     0.980           15     0.669      1.192  0.002335948  22.3298        531
 8.52   0.0000   1585.4020   1081.1869  19.30      138.832     0.747           15     0.449      1.553   0.00233489  22.6938        532
 6.00   0.0000   1556.3767    736.7162 -18.25      157.752     0.915           15     0.634      1.239  0.002335683  22.5551        533
 5.38   0.0000   1552.9888   1370.2686 -84.74     99.81828     0.732           15     0.663      1.461  0.002337004  23.0520        534
 3.50   0.0000   1569.3851     90.9243 -41.96     2280.425     1.550           15     1.467      1.088  0.002337004  19.6550        535
 6.29   0.0000   1563.3805   1056.7488 -16.59     150.9184     0.735           15     0.457      1.397  0.002336212  22.6031        536
 4.98   0.0000   1534.6080    918.2563 -51.49     394.8783     0.953           15     0.921      0.970  0.002337797  21.5588        537
 3.50   0.0000   1562.5898    302.4521 -45.58     47509.52     2.019           15     1.967      1.568  0.002337004  16.3580        538
 3.50   0.0000   1560.2576    859.8233  74.23      1645.12     1.436           15     1.383      1.144  0.002336476  20.0095        539
 3.50   0.0000   1565.5569     20.2206  57.22     2725.843     1.574           15     1.561      0.917  0.002336212  19.4612        540
 5.20   0.0000   1537.9053    504.3612 -79.62     237.5227     1.327           15     1.005      1.710  0.002333568  22.1107        541
 3.50   0.0000   1561.7706   1564.7495 -63.83     358.9612     1.058           15     1.025      1.204  0.002336476  21.6624        542
 3.50   0.0000   1551.5563    680.5738 -24.00     18201.54     5.083           15     4.244      8.582  0.002337004  17.3997        543
 4.21   0.0000   1561.5295    384.6417 -86.17     448.0763     1.976           15     1.061      2.440  0.002335419  21.4216        544
 3.93   0.0000   1545.0358    861.9047  43.82     1370.568     1.947           15     1.703      1.573  0.002333833  20.2077        545
 3.72   0.0000   1564.7643    782.9756 -75.07     1684.707     2.293           15     1.665      1.578  0.002335683  19.9837        546
 3.50   0.0000   1557.0255    485.9516 -47.98     46123.16     2.030           15     1.975      1.489  0.002337004  16.3902        547
 3.50   0.0000   1540.7054    133.3067 -30.25     4340.164     1.600           15     1.576      0.892  0.002333039  18.9562        548
 3.50   0.0000   1550.4473    350.6761  67.25     130.4526     0.939           15     0.820      1.146  0.002334626  22.7614        549
 3.50   0.0000   1535.1479   1427.4199 -48.80     650.7608     2.272           15     1.119      2.913  0.002336212  21.0164        550
 6.31   0.0000   1551.1415    131.7945  45.43     150.5138     0.822           15     0.672      1.422  0.002337004  22.6061        551
 6.40   0.0000   1534.5160   1151.1299 -54.23      122.291     0.910           15     0.671      1.914  0.002333833  22.8315        552
 3.50   0.0000   1551.0106   1512.1774   1.11     202.2648     0.882           15     0.750      1.220  0.002335419  22.2852        553
 5.61   0.0000   1527.4615    731.5830  51.87     382.5939     1.481           15     1.131      1.239  0.002335419  21.5932        554
 5.80   0.0000   1528.0006    548.5232 -26.61     115.3593     1.180           15     0.493      1.155  0.002336212  22.8949        555
 4.04   0.0000   1475.9595    197.0662  16.45     367.9463     1.277           15     1.095      1.164  0.002335683  21.6355        556
 3.50   0.0000   1506.1283    267.6159 -49.69     30202.49     1.917           15     1.901      1.406  0.002337269  16.8499        557
 3.50   0.0000   1541.5586    652.9528 -77.41     3142.147     1.614           15     1.587      0.998  0.002336476  19.3069        558
 6.99   0.0000   1535.1720   1059.8418 -49.89     132.2628     0.753           15     0.567      1.507  0.002336476  22.7464        559
 7.81   0.0001   1529.3202    894.3311 -44.48     44.24781     0.571           15     0.337      2.076  0.002334097  23.9353        560
 5.35   0.0000   1521.6176     12.5277  -1.21     367.4028     1.206           15     1.068      1.043  0.002337004  21.6371        561
 5.19   0.0000   1518.9501   1099.4459 -74.31     611.6266     1.799           15     1.410      1.928  0.002336476  21.0838        562
 5.01   0.0000   1495.4773    928.6407 -51.50     205.0082     1.115           15     0.768      1.140  0.002335155  22.2706        563
 4.94   0.0000    924.1212    932.8455  44.49       148.73     0.819           15     0.673      1.141  0.002334626  22.6190        564
 3.77   0.0000   1518.1226     83.3331  17.12     461.8506     1.464           15     1.337      1.455  0.002333568  21.3887        565
 4.89   0.0000   1496.7327    671.9523  85.88     116.1304     0.874           15     0.746      1.372  0.002335155  22.8876        566
 3.50   0.0000   1522.7461    377.0766  64.19     365.8869     1.749           15     1.137      2.203   0.00233489  21.6416        567
 3.50   0.0000   1514.4865   1545.7642  74.92     689.3908     1.731           15     1.299      1.585  0.002335419  20.9538        568
 5.13   0.0000   1526.1042    877.5258 -49.60      289.106     1.024           15     0.928      1.034  0.002334362  21.8974        569
 7.42   0.0000   1524.4744   1214.5233  44.72     83.66084     0.505           15     0.494      1.106  0.002334362  23.2437        570
 5.90   0.0000   1511.2374      3.4280  70.33     63.36854     0.726           15     0.457      2.350  0.002011362  23.5453        571
 5.95   0.0000   1503.4086   1310.3672  15.62     261.2647     1.098           15     0.988      1.487  0.002335948  22.0073        572
 3.50   0.0000   1513.8717    390.9574   8.93     9011.605     1.734           15     1.696      1.217   0.00233489  18.1630        573
 4.92   0.0000   1501.4302   1412.0205  86.75     188.8582     1.053           15     0.778      1.588  0.002335683  22.3597        574
 3.65   0.0000   1513.5564    481.9802 -17.41     920.3942     1.252           15     1.195      1.000  0.002336212  20.6401        575
 5.10   0.0000   1496.0400   1123.2915  87.29     130.2522     0.731           15     0.666      1.368  0.002333833  22.7630        576
 8.11   0.0000   1491.4913   1094.4883 -45.23     69.56676     0.504           15     0.496      1.318  0.002333568  23.4440        577
 6.55   0.0000   1508.4961   1207.4703 -54.67     162.5852     0.501           15     0.498      1.566  0.002334362  22.5223        578
 5.84   0.0000   1502.9546   1095.0154 -33.20     350.5714     1.145           15     1.121      1.444  0.002335948  21.6881        579
 5.89   0.0001   1470.8153    428.6268  73.24     45.20375     0.747           15     0.452      1.026  0.002335948  23.9121        580
 3.50   0.0000   1503.1005    721.7963  85.96     1210.415     1.455           15     1.343      1.141  0.002335155  20.3427        581
 7.86   0.0000   1444.3121   1513.6656  43.92     75.33288     0.568           15     0.338      1.415   0.00233489  23.3575        582
 5.55   0.0000   1500.3175    678.8662  69.81     130.8048     0.944           15     0.676      1.235  0.002333833  22.7584        583
 4.79   0.0000   1496.9937   1231.2512   3.78      202.383     0.887           15     0.749      1.316  0.002337269  22.2846        584
 3.50   0.0000    938.2676   1065.6359  78.65     2049.562     1.520           15     1.429      1.079  0.002335948  19.7708        585
 5.49   0.0000    918.7383   1343.1334  67.07     112.0066     0.905           15     0.679      1.509  0.002334626  22.9269        586
 3.50   0.0000   1497.6681    842.9136 -82.04     684.4697     1.150           15     1.130      1.241  0.002333833  20.9616        587
 8.03   0.0000   1482.4897    766.5070  44.88     99.18361     0.507           15     0.493      1.030  0.002333833  23.0589        588
 5.37   0.0000    924.6559    308.9597 -63.76     75.52056     0.904           15     0.680      1.105  0.002335683  23.3548        589
 4.43   0.0000   1487.1868     76.3099 -11.18     663.9252     1.351           15     1.275      1.076  0.002335419  20.9947        590
 5.99   0.0000   1477.4261   1022.4846  49.24       209.82     1.380           15     0.818      1.989  0.002335419  22.2454        591
 6.73   0.0000   1493.3007    870.6557  48.81     205.4191     0.973           15     0.753      1.359  0.002333039  22.2684        592
 3.50   0.0000    916.6439   1111.5323 -59.00     100.9294     0.973           15     0.667      1.125  0.002335419  23.0400        593
 3.50   0.0000   1481.3418    573.6703 -42.67     901.5892     2.347           15     1.540      2.718   0.00233489  20.6625        594
 4.89   0.0000    925.0795    664.7284  57.85     173.1629     1.138           15     1.001      1.177  0.002334362  22.4539        595
 6.56   0.0001   1465.1570    117.1404  45.46     45.04858     0.764           15     0.574      1.526  0.002335155  23.9158        596
 3.50   0.0000    927.3339   1321.0812 -61.05     1155.842     1.499           15     1.399      1.310  0.002333833  20.3928        597
 3.50   0.0000    931.3835   1116.4708  75.76     177.2363     1.081           15     1.003      1.074  0.002337004  22.4286        598
 5.38   0.0000   1384.9196   1273.9596  87.84      572.031     1.387           15     0.956      3.234  0.002334626  21.1565        599
 4.01   0.0000   1437.7355    645.6823   1.80     405.2299     1.558           15     1.048      1.521  0.002334097  21.5307        600
 4.40   0.0000   1448.3927     86.3632 -47.29     247.9286     1.024           15     0.927      1.022  0.002336212  22.0642        601
 6.02   0.0000   1401.1685     61.1052 -41.51       86.739     0.824           15     0.674      1.209  0.002334626  23.2045        602
 7.28   0.0000   1464.1953    446.6032 -70.87     102.2481     0.759           15     0.446      1.324   0.00233489  23.0259        603
 6.58   0.0000   1474.9777   1569.0199   0.35     258.9733     1.047           15     0.739      1.728  0.002336212  22.0169        604
 3.50   0.0000    946.7219    443.5327  -8.88      436.168     1.344           15     1.218      0.957  0.002333568  21.4509        605
 4.81   0.0000   1474.1392    996.7997 -16.39      983.105     2.795           15     1.369      4.607  0.002337269  20.5685        606
 4.02   0.0000    940.5370    724.2386  51.84      225.086     1.254           15     1.155      1.479  0.002335683  22.1691        607
 8.17   0.0000   1453.3550    660.3173 -46.57      82.6759     0.579           15     0.332      2.051   0.00233489  23.2566        608
 3.93   0.0000    949.4452    825.2108  10.02     107.4676     1.088           15     0.977      1.301  0.002335948  22.9718        609
 3.50   0.0000   1434.2606    223.0007 -32.24     4355.471     1.608           15     1.563      1.080  0.002337269  18.9524        610
 4.26   0.0000   1456.9535    610.4011  86.64     221.0166     1.105           15     0.934      1.534  0.002337269  22.1889        611
 7.10   0.0000   1461.1692   1381.0164 -37.60     301.6848     0.944           15     0.468      1.690  0.002336476  21.8511        612
 3.50   0.0000   1436.0892    385.9802 -39.21     88.00613     0.783           15     0.756      1.380  0.002335419  23.1887        613
 5.52   0.0000   1453.9026    921.1028  44.43     204.9047     0.835           15     0.654      1.410  0.002333304  22.2711        614
 4.47   0.0000    954.2115   1027.9546  88.49     141.8983     0.892           15     0.747      1.086  0.002335948  22.6701        615
 3.50   0.0000   1452.4904    389.9429  -2.35     376.0395     1.050           15     0.920      1.025  0.002334362  21.6119        616
 6.40   0.0000   1453.5001    165.0619   2.35      144.748     0.789           15     0.499      0.929  0.002334362  22.6485        617
 5.39   0.0000   1436.8303    995.2935  59.87      111.414     0.860           15     0.603      1.695  0.002334626  22.9326        618
 6.31   0.0001   1441.2223   1080.4078  41.96     42.85866     5.085           15     2.216     12.078  0.002335419  23.9699        619
 4.61   0.0000    937.2505    514.7386  61.93     717.7957     2.483           15     1.774      3.397   0.00233489  20.9100        620
 5.21   0.0001   1444.7445    176.9984  -0.09     32.50722     0.661           15     0.436      1.332  0.002337533  24.2701        621
 3.50   0.0000   1277.2097   1329.9363 -83.60     4871.438     1.672           15     1.615      1.240  0.002337269  18.8309        622
 3.84   0.0019   1445.3173    729.8325 -74.37     1.353838     1.173           15     1.108      3.932  0.002335419  27.7211        623
 6.96   0.0000   1437.4756    178.5233  44.91      60.3216     0.508           15     0.491      1.006  0.002334362  23.5988        624
 7.01   0.0000   1431.3955   1279.1644 -51.68     110.4895     1.218           15     0.666      2.364  0.002335948  22.9417        625
 4.07   0.0000   1437.7501   1269.6798 -57.64     825.2848     1.281           15     1.218      1.098  0.002334626  20.7585        626
 5.30   0.0000    952.3459   1502.9408 -74.55     105.4105     0.954           15     0.747      1.314  0.002335155  22.9928        627
 4.12   0.0000   1399.6982   1029.9491  28.84     1317.139     1.768           15     1.517      1.332  0.002332774  20.2509        628
 3.50   0.0000   1419.3452    427.6798 -38.86     212.2999     1.048           15     0.854      1.135  0.002334362  22.2326        629
 7.87   0.0000   1436.1605   1370.9844 -35.85     121.8393     0.942           15     0.470      2.954  0.002336476  22.8355        630
 3.50   0.0000   1435.2382   1345.9725 -43.47     526.8648     1.190           15     1.126      1.332  0.002336212  21.2458        631
 3.50   0.0000   1410.9811    365.4273 -64.79     282.1579     2.398           15     0.789      3.687  0.002335948  21.9238        632
 3.50   0.0000   1431.2139    339.0968  20.61     731.9619     1.993           15     1.306      1.893  0.002335155  20.8888        633
 6.61   0.0001    951.6320   1301.6992 -47.87     37.44986     0.577           15     0.332      1.235  0.002333568  24.1164        634
 7.07   0.0000   1125.0591    164.7227 -85.36     153.2722     0.729           15     0.669      1.043  0.002334626  22.5863        635
 3.50   0.0000   1438.7834    617.5041   0.94     3338.498     1.539           15     1.488      0.943  0.002335419  19.2411        636
 4.87   0.0000   1402.8424   1361.7333  83.47     405.7728     1.142           15     1.079      1.127  0.002335419  21.5293        637
 3.57   0.0000    949.6735    652.6602  88.61     908.2722     2.326           15     1.608      1.938  0.002334626  20.6545        638
 3.50   0.0000   1410.1559    348.3420  51.57     1084.617     1.903           15     1.500      1.588  0.002335419  20.4618        639
 4.44   0.0000   1128.6461    503.2995 -51.34     292.1663     0.995           15     0.869      1.451   0.00233251  21.8859        640
 7.48   0.0000   1402.1719   1343.8856 -79.30     250.4844     1.175           15     0.726      2.490  0.002335683  22.0530        641
 5.18   0.0000    958.5582    891.6916 -66.57     118.4269     0.908           15     0.818      1.057  0.002333568  22.8664        642
 6.62   0.0000   1417.7410    105.0747 -29.06     175.7229     1.124           15     0.780      1.302  0.002334626  22.4379        643
 3.50   0.0000   1414.4178   1385.1592  57.77     2230.145     1.482           15     1.452      1.290  0.002336476  19.6792        644
 3.50   0.0000   1407.1096    306.5855 -34.57     3198.051     1.545           15     1.468      1.059  0.002335419  19.2878        645
 3.56   0.0000   1405.3015    328.1953 -37.21     980.7975     1.263           15     1.231      0.895  0.002335155  20.5711        646
 5.13   0.0000   1391.6877   1532.9636 -71.40     442.9985     1.564           15     1.114      1.481   0.00233489  21.4340        647
 3.50 108.5448   1422.7789   1595.5917  31.97 2.197608e-05     1.066           15     0.784      2.952   0.00219649  39.6951        648
 3.50   0.0000   1392.3264    112.7032 -57.70     61270.42     2.073           15     2.009      1.566  0.002334097  16.0819        649
 3.50   0.0000   1387.8718   1427.1140 -68.69     8964.034     1.696           15     1.682      1.377  0.002333568  18.1687        650
 3.50   0.0000   1318.9795    658.3469  11.28     27268.41     1.913           15     1.881      1.423  0.002336212  16.9608        651
 4.23   0.0000   1361.6720    389.3143 -16.73     311.0012     1.393           15     0.891      1.398  0.002333568  21.8181        652
 3.55   0.0000   1303.7910    891.3155   0.46     1014.493     1.375           15     1.354      0.867  0.002335683  20.5344        653
 7.11   0.0000   1383.4497      6.5013  15.63     100.8166     0.500           15     0.497      1.031  0.002271915  23.0412        654
 6.11   0.0000   1305.5099    506.4791 -54.93     118.8477     0.500           15     0.499      1.153  0.002333833  22.8625        655
 3.56   0.0000   1172.3649    206.6084 -37.00      234.606     0.985           15     0.859      1.011  0.002336212  22.1242        656
 7.31   0.0000   1400.5953     89.6931  -8.00     110.3952     0.978           15     0.476      1.575   0.00233489  22.9426        657
 3.50   0.0000   1391.2922   1037.2568 -48.45     2467.132     1.541           15     1.518      0.972  0.002334362  19.5695        658
 4.17   0.0000   1171.6482    231.0428 -45.92     243.6589     1.066           15     1.030      0.842  0.002336212  22.0830        659
 7.24   0.0000   1152.1998    574.8105 -43.29     198.3161     0.766           15     0.565      1.300  0.002335155  22.3066        660
 5.98   0.0000   1386.4849    675.8113 -89.61     112.9434     0.947           15     0.739      1.354  0.002335419  22.9178        661
 3.66   0.0000   1387.6270   1583.8247 -18.48     281.0014     1.136           15     0.918      1.243  0.002335948  21.9282        662
 4.66   0.0000   1302.3594     41.0321  74.89     155.7513     0.971           15     0.745      1.403   0.00233674  22.5689        663
 3.77   0.0000   1378.0979    317.4738 -15.02     559.5133     1.378           15     1.152      1.139  0.002333833  21.1805        664
 3.50   0.0000   1389.3972    711.6813  70.44     3299.283     1.637           15     1.548      1.116  0.002335948  19.2540        665
 4.13   0.0000   1387.8503    805.0400 -29.45     799.3153     1.232           15     1.209      1.052  0.002335683  20.7932        666
 4.17   0.0000   1305.6514    572.7693 -17.16     265.1085     1.200           15     0.920      1.145  0.002336212  21.9914        667
 6.99   0.0000   1388.2119   1020.1626  45.10     76.15086     0.761           15     0.561      1.420  0.002336212  23.3458        668
 5.14   0.0000   1305.3473    842.9402 -67.85     339.4932     1.275           15     1.227      1.581   0.00233489  21.7229        669
 3.50   0.0000   1328.8595    654.2327   8.94     3511.419     1.787           15     1.708      1.036  0.002335948  19.1863        670
 6.21   0.0000   1384.6271   1383.2841 -19.33     239.4949     1.135           15     0.863      2.748  0.002335419  22.1018        671
 3.50   0.0000   1371.5343   1017.4498 -34.21     9819.104     1.952           15     1.789      1.157  0.002335155  18.0698        672
 8.54   0.0001   1370.6715   1405.6732 -45.08     50.13048     0.572           15     0.336      1.631  0.002333568  23.7997        673
 4.90   0.0000   1369.9506    705.0201  41.75     135.3748     0.784           15     0.761      0.873  0.002336212  22.7212        674
 3.90   0.0000   1367.2488    147.8047  46.55     418.9203     1.155           15     1.009      0.985  0.002337269  21.4947        675
 3.81   0.0000   1351.9926    965.6973 -86.89     176.4337     0.730           15     0.674      1.210  0.002335155  22.4335        676
 5.82   0.0000   1361.7981    525.0860 -83.80      231.448     1.493           15     0.793      2.308  0.002335419  22.1389        677
 4.23   0.0000   1307.3777    792.8633 -18.87     93.49986     0.750           15     0.444      1.106  0.002336476  23.1230        678
 6.66   0.0000   1364.6440    360.7292 -49.68     65.60256     0.558           15     0.340      0.832   0.00233489  23.5077        679
 4.30   0.0000   1351.8098    473.9139 -85.75     220.4188     0.897           15     0.747      1.235  0.002335683  22.1919        680
 6.34   0.0000   1342.3510    988.7001 -12.87     167.2861     1.163           15     0.614      2.612  0.002332245  22.4914        681
 3.50   0.0000   1345.9407    192.7332 -18.99      280.409     1.097           15     1.035      1.149  0.002334626  21.9305        682
 4.04   0.0000   1351.1879    150.3214  82.34     726.4226     2.463           15     1.747      3.061   0.00233674  20.8970        683
 3.50   0.0000   1345.2531    603.5728 -59.62     605.9557     1.418           15     1.256      1.279  0.002336476  21.0939        684
 6.99   0.0000   1338.0414   1478.8147   3.59     243.6749     0.925           15     0.748      2.762  0.002336212  22.0830        685
 3.50   0.0000   1306.4845    668.0395 -47.34      3150.74     1.962           15     1.626      1.080  0.002335419  19.3040        686
 3.50   0.0000   1329.3781    385.2712  20.08      777.572     1.343           15     1.268      1.022   0.00233674  20.8231        687
 6.93   0.0000   1308.0298    295.4804  88.99     160.9969     0.802           15     0.499      1.166  0.002335419  22.5330        688
 7.31   0.0000   1325.5171    582.4986 -44.03     83.04247     0.504           15     0.496      1.014  0.002333304  23.2517        689
 3.50   0.0000   1331.7174    105.6776 -30.23     1260.899     1.427           15     1.334      1.004  0.002334362  20.2983        690
 6.53   0.0000   1299.1121    845.1188 -41.88     111.3791     0.824           15     0.665      1.328  0.002334097  22.9330        691
 6.61   0.0000   1306.0129   1306.5032 -88.17     93.90793     0.766           15     0.500      1.020   0.00233489  23.1182        692
 5.28   0.0000   1316.0166   1355.6863  85.62     103.8736     0.734           15     0.671      1.208  0.002335683  23.0087        693
 7.49   0.0000   1325.6763    493.3164  45.37     147.8804     0.566           15     0.339      0.777  0.002334097  22.6252        694
 5.75   0.0000   1324.2372    631.8989  13.38     296.8176     1.971           15     0.857      1.993  0.002333304  21.8688        695
 3.50   0.0000   1318.3059    262.3652 -30.64     1111.413     1.336           15     1.281      0.969  0.002334097  20.4353        696
 3.50   0.0000   1297.3158    723.3206 -20.08     121942.8     2.712           15     2.162      1.750  0.002334362  15.3346        697
 3.66   0.0002   1311.0092    269.7453  42.51     12.66106     0.712           15     0.685      2.406  0.002337004  25.2938        698
 3.50   0.0000   1291.6219    411.0577  34.42     1407.773     1.391           15     1.366      0.888   0.00233674  20.1787        699
 3.50   0.0000   1258.4602    430.8126  -3.26     1857.981     2.320           15     2.159      2.804  0.002335948  19.8774        700
 3.50   0.0000   1290.3990    760.6142 -27.66     7536.195     2.301           15     1.747      1.376  0.002335419  18.3571        701
 3.50   0.0000   1271.7930    608.2683 -57.88     11013.09     4.675           15     2.666      6.345  0.002337004  17.9452        702
 5.59   0.0000   1222.0542    828.7747   3.94     95.27701     0.906           15     0.744      1.160  0.002337004  23.1025        703
 4.50   0.0000   1290.6350    544.1825  -0.65     402.4224     1.145           15     1.077      0.845  0.002335948  21.5383        704
 4.13   0.0000   1298.2050     52.2058 -77.32      612.396     1.182           15     1.147      0.883  0.002335155  21.0824        705
 5.01   0.0000   1282.9824    860.6916 -87.45     115.1864     0.731           15     0.684      1.429  0.002335683  22.8965        706
 4.24   0.0000   1282.2821   1567.5819 -26.06     278.6206     0.954           15     0.923      1.040  0.002335948  21.9375        707
 4.08   0.0000   1261.1658    853.7751 -72.91     711.4991     1.345           15     1.193      1.195  0.002335948  20.9196        708
 5.92   0.0000   1197.2489    411.0043   9.34      91.8398     0.727           15     0.679      1.379  0.002337004  23.1424        709
 7.10   0.0000   1283.8114    335.5797  70.46     85.51954     0.734           15     0.454      1.393  0.002335419  23.2198        710
 4.45   0.6363   1166.0505   1598.7899  84.31   0.00319984     1.452           15     1.046      4.448   0.00187476  34.2872        711
 3.65   0.0000   1272.8624    696.4680 -44.50     462.7918     1.482           15     1.294      1.089   0.00233489  21.3865        712
 3.50   0.0000   1261.2969    214.4019 -17.02      439.225     1.151           15     1.050      1.069  0.002335419  21.4433        713
 3.50   0.0000   1264.4139    806.2878 -53.57     3786.048     1.595           15     1.574      1.031  0.002335683  19.1045        714
 3.50   0.0000   1209.7404   1277.4849  80.72     9834.449     6.182           15     3.728      9.218  0.002334362  18.0681        715
 7.87   0.0002   1266.6522   1225.3047  47.02     15.55148     0.571           15     0.336      1.291  0.002334097  25.0706        716
 6.33   0.0000   1175.8220     17.3821 -23.95     268.6257     1.527           15     0.942      2.698  0.002335419  21.9771        717
 3.50   0.0000   1233.3180    303.1345  29.10     3188.597     1.554           15     1.519      1.059  0.002333833  19.2910        718
 4.72   0.0000   1242.9985    612.2227  22.73     280.7348     1.097           15     0.993      0.814  0.002335419  21.9293        719
 3.50   0.0000   1236.5981     46.4782 -25.56     624.8788     1.263           15     1.243      0.989  0.002336212  21.0605        720
 5.76   0.0000   1243.4989   1537.5068 -45.16     61.90207     0.504           15     0.496      1.398  0.002333568  23.5707        721
 7.07   0.0000   1223.4917    403.4926  44.86     80.86271     0.501           15     0.498      2.102  0.002333304  23.2806        722
 3.76   0.0000   1211.9121   1427.8794  73.94     1741.983     2.978           15     2.361      4.870  0.002333833  19.9474        723
 3.50   0.0000   1164.2924   1298.2385 -59.63     41902.41     1.995           15     1.938      1.545  0.002333833  16.4944        724
 5.09   0.0000   1228.8402    597.3935  -2.19     882.6884     2.129           15     2.017      1.679  0.002336212  20.6855        725
 5.74   0.0000   1237.0840    855.8597 -71.22     489.9881     1.513           15     1.244      1.734  0.002334362  21.3245        726
 3.50   0.0000   1180.6746    174.5651  31.56     664.8818     1.243           15     1.194      0.962  0.002335155  20.9931        727
 3.50   0.0000   1218.0151   1193.4807  60.41     11142.87     2.053           15     1.926      1.345  0.002336212  17.9325        728
 3.55   0.0000   1276.5546    341.9083   0.18      330.706     1.035           15     0.933      1.133  0.002333833  21.7514        729
 3.50   0.0000   1236.1539   1552.2009 -65.03     2021.926     1.585           15     1.454      1.332  0.002337004  19.7856        730
 7.18   0.0000   1207.5233    394.5308  51.04     101.8026     0.500           15     0.498      1.052  0.002333833  23.0306        731
 3.50   0.0000   1213.5748    511.3524 -66.00     16928.67     1.827           15     1.816      1.196   0.00233674  17.4784        732
 3.72   0.0000   1227.7876   1152.1393   0.57     563.1791     1.258           15     1.180      1.095  0.002336212  21.1734        733
 4.52   0.0000   1220.3372   1429.9242  80.95     400.4125     1.322           15     1.141      1.673  0.002334362  21.5437        734
 3.50   0.0000   1200.7266    337.4240 -89.85     2036.366     1.514           15     1.479      0.902  0.002335948  19.7779        735
 3.82   1.2265   1176.0360   1597.4003 -76.26  0.001796943     1.031           15     0.999      3.783  0.002029388  34.9137        736
 5.16   0.0000   1196.2177   1199.2235  47.91     152.9149     0.748           15     0.560      1.502  0.002335155  22.5889        737
 5.69   0.0000   1185.2485    389.9910  -3.28     104.2827     0.736           15     0.674      1.444   0.00233674  23.0045        738
 8.58   0.0000   1219.5114     73.4809  45.67     73.59716     0.505           15     0.495      2.313  0.002334097  23.3828        739
 3.50   0.0000   1200.0365   1440.7336  58.97     1351.852     1.881           15     1.679      1.661  0.002335948  20.2227        740
 3.76   0.0000   1203.2450   1216.0132  72.78     286.5032     1.168           15     1.062      1.250  0.002335948  21.9072        741
 3.50   0.0000   1195.9852   1332.1592  -1.52     115.2164     0.904           15     0.752      1.128  0.002336212  22.8962        742
 5.05   0.0000   1209.7737    827.6084  22.78     249.3698     1.442           15     1.102      1.317  0.002335683  22.0579        743
 3.50   0.0000   1206.7358    837.2416 -42.46     2098.351     1.527           15     1.462      0.945  0.002335419  19.7453        744
 4.65   0.0000   1208.1072   1453.4906 -89.78     122.4907     0.781           15     0.500      1.307  0.002333568  22.8297        745
 4.23   0.0000   1209.5900   1414.3734   9.67     365.2581     1.420           15     1.140      1.553  0.002335683  21.6435        746
 4.10   0.0000   1193.9963    122.5347 -66.48     1810.645     2.610           15     2.098      2.383  0.002337004  19.9054        747
 6.01   0.0000   1185.9536   1232.9054  72.08     63.03466     0.967           15     0.706      1.727  0.002333568  23.5511        748
 3.76   0.0000   1179.9651    547.8391  32.66     817.8995     1.347           15     1.312      1.074  0.002336212  20.7682        749
 7.19   0.0000   1192.6536   1420.2957  47.54     99.08389     0.566           15     0.338      0.846  0.002334362  23.0600        750
 4.24   0.0000   1184.2759    312.2723 -16.62      322.407     1.036           15     0.922      1.079  0.002334362  21.7790        751
 7.49   0.0000   1186.3088   1131.6680  43.83     82.72997     0.566           15     0.339      1.865  0.002334362  23.2558        752
 6.89   0.0000   1174.8148    251.5668  -2.45     170.1892     0.974           15     0.726      0.994  0.002335948  22.4727        753
 5.49   0.0000   1146.6656    110.8163 -14.66     208.3879     1.116           15     0.937      1.012  0.002336476  22.2528        754
 5.57   0.0000   1179.3646   1402.4214 -43.16     192.9834     1.085           15     0.937      1.318  0.002336212  22.3362        755
 4.02   0.0000   1124.3574    274.8498  65.74     177.9498     0.872           15     0.691      1.252  0.002336212  22.4243        756
 7.02   0.0000   1154.3468   1123.8077 -16.17     130.4002     0.773           15     0.442      1.426  0.002337533  22.7618        757
 3.64   0.0000   1150.1429     97.7478 -34.33     1600.032     1.525           15     1.416      1.153  0.002335419  20.0397        758
 7.74   0.0000   1178.2040   1306.0741  31.16     111.6071     1.003           15     0.647      2.082  0.002337004  22.9308        759
 5.36   0.0000   1156.9889    184.1194 -51.71     237.7192     1.297           15     1.165      1.419  0.002336212  22.1098        760
 4.03   0.0000   1160.7404    886.1568 -11.94     721.3088     1.344           15     1.242      1.041  0.002335155  20.9047        761
 3.53   0.0000   1152.6720   1351.5508   3.28     1092.031     1.709           15     1.691      1.340  0.002334097  20.4544        762
 5.44   0.0000   1155.5161    350.0634 -73.16     164.3271     1.012           15     0.864      1.308  0.002334626  22.5107        763
 7.16   0.0010   1161.4746      1.5294 -45.53     1.918612     0.505           15     0.493      2.640  0.001789177  27.3425        764
 3.50   0.0000   1156.7535    234.6794 -64.64     6413.486     1.700           15     1.685      1.052   0.00233489  18.5323        765
 4.85   0.0000   1154.9880    565.8051 -77.85     316.5463     1.530           15     1.189      1.500  0.002334626  21.7989        766
 3.50   0.0000   1137.4573    146.3161 -44.73     28956.79     1.942           15     1.914      1.412  0.002334626  16.8956        767
 3.50   0.0000   1128.9298    181.7594 -62.63     17705.46     1.840           15     1.789      1.295  0.002335683  17.4297        768
 4.14   0.0000   1144.5010   1337.3401 -27.73     165.2123     1.671           15     0.641      2.732  0.002333568  22.5049        769
 7.60   0.0000   1128.5697    872.3498  50.18     201.9165     1.097           15     0.945      2.547  0.002336476  22.2871        770
 3.78   0.0001   1134.3955    249.1926  18.48     33.86541     0.751           15     0.450      1.055  0.002335419  24.2256        771
 6.18   0.0000   1076.9996    467.1209  -3.28     140.8793     0.902           15     0.754      1.154  0.002336212  22.6779        772
 4.41   0.0000   1130.0413    357.5918 -12.32     503.4971     1.292           15     1.087      1.010  0.002336212  21.2950        773
 3.77   0.0000   1128.2004    545.7906 -55.37      727.896     1.375           15     1.322      1.095  0.002334626  20.8948        774
 8.55   0.0000   1139.2007    423.4066  70.50     132.3127     0.780           15     0.442      1.712  0.002334626  22.7460        775
 3.50   0.0000   1129.1436    217.8235  -0.91     743.9186     1.678           15     1.377      1.157  0.002336476  20.8712        776
 3.57   0.0000   1119.3080    328.0933  59.30     2379.445     3.083           15     1.926      3.933  0.002333304  19.6088        777
 3.75   0.0000   1129.2731   1143.1703 -67.37     161.1109     0.895           15     0.672      1.145  0.002335683  22.5322        778
 5.20   0.0000   1127.0782    836.2460  49.13     203.1411     1.133           15     0.965      1.012  0.002334626  22.2805        779
 7.77   0.0000   1121.9967    916.5060  88.21     97.50607     0.789           15     0.500      2.029   0.00233489  23.0774        780
 6.01   0.0000    962.9714    422.4243   3.02     127.8482     1.055           15     0.775      0.843  0.002336212  22.7833        781
 5.11   0.0000   1110.1095    477.9849  24.61     1788.008     3.454           15     2.403      6.923  0.002335419  19.9191        782
 4.19   0.0000    964.1301    414.7306 -15.72     432.9301     1.332           15     1.197      0.978  0.002333568  21.4590        783
 6.77   0.0000   1114.8879    505.8842 -45.22     94.37135     0.842           15     0.662      1.324  0.002334097  23.1129        784
 3.50   0.0000   1115.5570   1169.0164 -27.92     258.5791     1.718           15     1.136      1.756  0.002336212  22.0185        785
 3.50   0.0000   1106.4430    426.3363 -12.52     7869.114     1.756           15     1.725      1.068  0.002335419  18.3102        786
 3.50   0.0000   1105.7848   1265.6261  14.03     176.9086     0.950           15     0.921      1.020  0.002335683  22.4306        787
 5.95   0.0000   1107.8596   1122.0044 -88.71     179.1204     0.899           15     0.759      1.272  0.002337269  22.4171        788
 5.98   0.0000   1107.1388    969.5492 -32.32     189.4938     0.884           15     0.669      1.368   0.00233489  22.3560        789
 3.50   0.0000   1093.6868   1134.7550  57.26     361.4706     1.190           15     1.120      1.119   0.00233489  21.6548        790
 5.89   0.0000   1083.3459    844.8585  28.91     121.1625     0.865           15     0.597      1.212   0.00233489  22.8416        791
 6.45   0.0000   1097.9957    861.5089  87.50     57.42601     0.780           15     0.499      1.317  0.002334626  23.6522        792
 8.58   0.0000   1100.4911   1350.5156 -45.57     113.1052     0.504           15     0.496      1.340  0.002333833  22.9163        793
 4.56   0.0000   1089.9375    466.4632 -60.24     860.3627     2.924           15     1.420      3.553  0.002335155  20.7133        794
 3.64   0.0000   1078.3167    328.4370 -34.95      640.636     1.291           15     1.261      0.966  0.002335419  21.0335        795
 6.23   0.0000   1088.5007    781.6550  47.36     10006.46     1.988           15     0.851      5.227  0.002333304  18.0493        796
 3.50   0.0000   1080.8472   1146.6837  75.29     10950.14     1.766           15     1.748      1.177   0.00233489  17.9515        797
 3.50   0.0000   1085.4919   1451.3832  71.80     391.3192     1.709           15     1.266      1.728  0.002335683  21.5687        798
 4.71   0.0000   1087.1926    395.1700  61.34     331.4017     1.474           15     1.153      1.465  0.002336212  21.7491        799
 3.50   0.0000   1079.0331    510.4742 -24.99     29895.32     1.946           15     1.923      1.431  0.002335155  16.8610        800
 5.61   0.0000   1091.9287    427.6175  30.39     473.6349     2.381           15     1.768      2.852  0.002337004  21.3614        801
 3.97   0.0000   1027.1095    462.3798 -13.61     164.5503     0.967           15     0.840      0.915  0.002335155  22.5093        802
 4.69   0.0000    976.0833   1279.1793  -3.56     157.1462     0.886           15     0.754      1.368  0.002335948  22.5592        803
 3.50   0.0000   1094.6233   1525.1907 -21.24     1074.155     1.366           15     1.277      1.235  0.002335683  20.4723        804
 4.28   0.0000    977.8204   1064.9080 -42.06     145.6915     0.815           15     0.661      1.308   0.00233489  22.6414        805
 6.61   0.0000   1086.1075   1010.4985 -89.78     120.7017     0.782           15     0.500      1.324  0.002333568  22.8457        806
 6.72   0.0000    973.0319    546.8412  32.97     108.8354     1.184           15     0.986      1.117   0.00233674  22.9581        807
 3.88   0.0000    979.9756    796.2888 -70.15     987.0953     2.012           15     1.750      1.447  0.002335155  20.5641        808
 3.59   0.0000   1071.2046   1217.5081 -72.58     1871.608     2.659           15     2.178      2.529  0.002334626  19.8695        809
 3.95   0.0000   1065.7673    567.4858 -51.22     340.0916     1.442           15     1.193      0.983  0.002335683  21.7210        810
 4.77   0.0000   1073.4934    350.8318  56.28     304.0133     1.570           15     1.168      1.800  0.002334626  21.8428        811
 3.50   0.0000   1018.5300   1153.2941   0.29     212.9575     1.112           15     0.958      0.912  0.002334362  22.2293        812
 4.67   0.0000    977.1620    451.1199 -12.26     535.9288     1.391           15     1.351      1.217  0.002335155  21.2272        813
 4.10   0.0000   1064.2843   1561.6064 -68.31     1121.373     2.920           15     1.900      5.242  0.002335419  20.4256        814
 4.25   0.0000   1016.2690    199.5811  18.94      289.326     1.237           15     1.123      1.250   0.00233674  21.8965        815
 8.56   0.0000   1063.4946   1411.5529 -75.93     59.55985     0.500           15     0.497      1.143  0.002333304  23.6126        816
 3.50   0.0000   1064.8357   1595.6908 -33.66     102.3342     1.260           15     1.151      3.257  0.002188607  23.0249        817
 3.87   0.0000   1062.9008    290.3270 -17.99     273.5443     1.326           15     1.092      1.348  0.002333568  21.9574        818
 3.50   0.0000   1067.1243   1472.6689  14.34     512.9368     2.823           15     1.653      5.129  0.002333568  21.2748        819
 4.71   0.0000    981.2842   1485.5713 -77.06     250.6896     1.067           15     1.018      1.053  0.002335419  22.0522        820
 3.84   0.0000    983.6364    952.3672 -44.23      145.407     1.026           15     0.850      1.737  0.002336212  22.6435        821
 4.99   0.0000   1046.8124   1157.0242  25.49     157.3052     1.028           15     0.834      1.377  0.002335419  22.5581        822
 4.56   0.0000   1051.7394    398.9897 -86.66     235.5122     1.362           15     1.022      1.504  0.002337004  22.1200        823
 7.80   0.0000   1057.3190   1123.3468 -43.80     114.7026     0.577           15     0.333      1.707  0.002334097  22.9011        824
 3.50   0.0000   1037.6897    523.7834  86.28     9297.134     1.786           15     1.746      1.210  0.002335948  18.1291        825
 5.10   0.0000   1042.3329    808.1368  11.60     181.0212     1.012           15     0.923      1.350  0.002334626  22.4057        826
 3.50   0.0000   1051.3562    236.0320  36.37     203.4324     1.451           15     1.125      1.439   0.00233674  22.2789        827
 4.99   0.0000   1052.8051   1383.8260 -44.51     138.5637     0.801           15     0.678      1.293  0.002335948  22.6959        828
 5.00   0.0000   1039.5859    465.5739  35.30     284.2529     1.472           15     1.238      1.510  0.002335683  21.9157        829
 4.13   0.0000   1027.2864    350.4988 -26.49     213.2127     0.998           15     0.934      1.447  0.002333304  22.2280        830
 4.12   0.0000   1047.2477    206.8763 -11.74     156.1308     1.094           15     0.833      1.343  0.002334626  22.5663        831
 3.50   0.0000   1039.2819    631.3823 -47.77     35323.24     2.062           15     1.930      1.455  0.002335948  16.6798        832
 3.70   0.0000   1041.6344   1094.2770  32.33     201.6216     1.358           15     0.917      1.391  0.002335155  22.2887        833
 6.15   0.0000   1027.8228    179.1358 -52.96     180.5228     1.424           15     1.147      2.301  0.002336212  22.4087        834
 7.74   0.0000   1045.3263   1525.2917 -46.98     69.39288     0.556           15     0.343      1.692  0.002334626  23.4467        835
 3.62   0.0000   1029.2360    300.9311  68.37     1807.152     2.880           15     2.046      3.834  0.002335948  19.9075        836
 3.50   0.0000   1025.4961   1265.4884 -47.80     51.39724     0.914           15     0.893      1.126  0.002333039  23.7726        837
 5.36   0.0000   1036.3783    240.4039 -37.63     204.5178     1.028           15     0.935      1.055  0.002335419  22.2732        838
 3.50   0.0000   1020.2864   1267.2635  46.83     292.6394     2.431           15     1.200      3.205  0.002334097  21.8842        839
 5.07   0.0000   1032.6786    492.1204   7.78      136.663     0.926           15     0.617      1.450  0.002334362  22.7109        840
 3.50   0.0000   1008.8692    812.1069 -81.70     18152.11     1.852           15     1.821      1.344  0.002334097  17.4027        841
 4.46   0.0000   1031.0696   1166.3311  84.24     92.51952     0.726           15     0.657      0.942  0.002333833  23.1344        842
 4.83   0.0000    992.2522    498.1240 -23.09     193.4506     1.114           15     0.991      1.275  0.002334097  22.3336        843
 4.50   0.0000   1028.9331    945.9552 -38.55     120.8072     0.805           15     0.756      1.409  0.002335155  22.8448        844
 3.50   0.0000   1024.8660   1378.5510 -84.88     19784.07     1.929           15     1.808      1.423  0.002335155  17.3092        845
 4.96   0.0000   1078.1774    920.7845   1.52     189.6578     1.077           15     0.992      1.221  0.002335155  22.3551        846
 5.59   0.0000   1022.9835    581.0146  84.35     52.79672     0.616           15     0.614      1.442  0.002335683  23.7435        847
 3.50   0.0000   1013.5265    451.3890  27.59     395.3753     1.345           15     1.171      1.058  0.002337004  21.5575        848
 4.62   0.0754   1026.7218    605.8604 -20.37   0.03361007     1.088           15     0.985      2.563  0.002334626  31.7338        849
 4.04   0.0000   1028.5107   1033.9437  60.30     123.1792     0.974           15     0.665      1.302  0.002334362  22.8237        850
 3.50   0.0000   1010.2885    343.0870  -8.24     2740.498     1.577           15     1.570      1.088  0.002333833  19.4554        851
 5.12   0.0000   1009.9271    266.0828  49.60     440.2989     1.444           15     1.294      1.419  0.002333833  21.4406        852
 3.50   0.0000    983.9253    556.8586 -41.70     26667.81     1.920           15     1.898      1.410  0.002334626  16.9850        853
 6.14   0.0000   1008.5601    188.8143 -20.84     89.62096     0.878           15     0.756      1.266  0.002336476  23.1690        854
 4.68   0.0000    991.3894    344.4406 -41.60     241.6657     1.046           15     0.911      1.028  0.002335948  22.0920        855
 4.42   0.0000    985.7007    452.4942  57.23     1207.117     2.358           15     2.028      2.199  0.002333039  20.3456        856
 3.50   0.0000   1003.4247   1236.5607  43.93      143.633     1.110           15     0.820      1.111  0.002336476  22.6569        857
 3.50   0.0000   1000.7147    541.0195  17.14      2904.77     1.650           15     1.609      1.130  0.002335948  19.3922        858
 3.50   0.0000   1000.5333   1554.0957  48.83     1274.465     1.410           15     1.388      1.341   0.00233489  20.2867        859
 3.50   0.0000    998.9059   1272.4447 -29.89     982.7692     1.426           15     1.299      1.277  0.002333568  20.5689        860
 4.73   0.0000    998.8200   1439.8519 -46.49     57.07185     0.811           15     0.662      1.360  0.002336212  23.6589        861
