#   1 KRON_RADIUS            Kron apertures in units of A or B                         
#   2 MAGERR_APER            RMS error vector for fixed aperture mag.                   [mag]
#   3 Y_IMAGE                Object position along y                                    [pixel]
#   4 X_IMAGE                Object position along x                                    [pixel]
#   5 THETA_IMAGE            Position angle (CCW/x)                                     [deg]
#   6 FLUX_APER              Flux vector within fixed circular aperture(s)              [count]
#   7 A_IMAGE                Profile RMS along major axis                               [pixel]
#   8 THRESHOLD              Detection threshold above background                       [count]
#   9 B_IMAGE                Profile RMS along minor axis                               [pixel]
#  10 FLUX_RADIUS            Fraction-of-light radii                                    [pixel]
#  11 FLUXERR_APER           RMS error vector for aperture flux(es)                     [count]
#  12 MAG_APER               Fixed aperture magnitude vector                            [mag]
#  13 NUMBER                 Running object number                                     
 3.77   0.0000     52.3656     61.8381  -4.11     27972.31     5.767           25     5.156      8.088  0.002335948  16.9332          1
 3.50   0.0000     15.7502    983.4642 -87.95     4454.577     4.430           25     1.919      5.195  0.002335155  18.9280          2
 3.50   0.0000     17.0166     89.5020 -27.30     4216.073     1.584           25     1.535      0.989   0.00233489  18.9877          3
 3.50   0.0000     13.8130   1444.2402 -50.19     11056.44     1.667           25     1.653      1.292  0.002335948  17.9410          4
 4.41   0.0000     16.2316    382.9453 -68.30     358.6985     1.179           25     1.108      1.199  0.002336212  21.6632          5
 6.18   0.0000     12.9454    839.5240 -53.69     145.1446     1.159           25     0.755      3.348  0.002334626  22.6455          6
 6.27   0.0000      5.8499   1467.8611 -42.10     63.66352     0.830           25     0.681      1.992  0.002229404  23.5403          7
 4.92   0.0000      3.4645    143.1826 -89.94     141.9213     1.495           25     1.267      2.081   0.00201596  22.6699          8
 6.83   0.0001      3.8580    183.6363 -19.12     44.27513     0.927           25     0.685      2.585   0.00205718  23.9346          9
 3.50   0.0000      9.2221   1182.3053  14.57     164.5339     0.946           25     0.830      1.292  0.002335155  22.5094         10
 7.11   0.0001      1.5458    302.4866  39.07     13.21224     0.504           25     0.494      3.021   0.00179159  25.2476         11
 3.50   0.0000     58.9477   1076.9407  75.51      39826.7     2.045           25     1.922      1.494   0.00233489  16.5496         12
 3.88   0.0000     23.8041    365.4746  73.25     803.2453     1.319           25     1.260      0.931  0.002337004  20.7879         13
 5.46   0.0000     17.0724   1213.4948  89.94     74.82233     0.771           25     0.500      1.011  0.002334362  23.3649         14
 7.67   0.0000     14.5140   1561.4911 -11.76     95.93676     0.500           25     0.500      1.142  0.002333304  23.0950         15
 4.90   0.0000     23.0687    381.3569  68.74     238.0076     1.192           25     1.060      1.323  0.002335419  22.1085         16
 3.84   0.0000     32.9996   1108.4679  65.17     370.8696     1.995           25     1.108      2.760   0.00233674  21.6269         17
 5.84   0.0000     22.8925    696.8405 -45.60     154.9511     0.813           25     0.665      1.341  0.002333304  22.5745         18
 4.81   0.0000     32.3472    325.0265 -20.34     236.2425     1.271           25     1.126      2.047  0.002336476  22.1166         19
 3.50   0.0000     37.1702   1519.9764 -87.99     226.0982     1.004           25     0.908      1.319  0.002335683  22.1643         20
 3.50   0.0000     37.9992   1169.0452  15.42     198.0179     1.136           25     1.112      1.268  0.002337004  22.3082         21
 6.78   0.0000     33.7591     14.6046  71.89     104.7939     0.734           25     0.455      1.336  0.002336212  22.9992         22
 5.40   0.0000     43.4825    438.4967 -73.85     212.4688     1.314           25     1.121      2.525  0.002333304  22.2318         23
 3.50   0.0000     79.0643    535.8630 -57.44     35687.62     1.925           25     1.904      1.480   0.00233489  16.6687         24
 4.38   0.0000     41.5828    913.7358 -33.51     236.4998     1.061           25     0.919      1.128  0.002336212  22.1154         25
 5.75   0.0000     38.6411   1224.6516 -43.67     95.64649     0.867           25     0.523      1.163  0.002335683  23.0983         26
 5.56   0.0000     49.4918   1433.8137 -65.21     278.9618     0.954           25     0.923      1.187  0.002335419  21.9361         27
 5.18   0.0000     49.4587    263.5749 -66.18     151.0498     1.195           25     0.955      1.972  0.002336476  22.6022         28
 7.80   0.0001     42.3415    226.6744  45.68     46.20558     0.577           25     0.333      1.472  0.002334626  23.8883         29
 7.05   0.0001     41.6549    999.6901 -46.62     44.30999     0.572           25     0.336      1.286  0.002334362  23.9337         30
 8.16   0.0000     46.6941    664.6706 -43.78     114.6431     0.563           25     0.340      2.740  0.002334362  22.9016         31
 6.12   0.0000     64.8561   1146.4165  14.61     126.3115     1.051           25     0.890      1.655  0.002336212  22.7964         32
 3.50   0.0000     74.1151    126.4486 -21.43     1749.683     1.427           25     1.348      1.098   0.00233489  19.9426         33
 6.35   0.0001     65.5015   1514.5056 -45.72     35.55384     0.501           25     0.499      1.145  0.002333039  24.1728         34
 8.49   0.0001     66.5318   1414.4746 -44.06     35.44299     0.505           25     0.494      1.882  0.002333568  24.1762         35
 6.53   0.0000     70.9779   1320.5319 -89.11     71.42254     0.789           25     0.499      0.999  0.002336476  23.4154         36
 4.15   0.0000     81.3945    419.8273  85.88      316.446     1.391           25     1.173      1.525  0.002335683  21.7992         37
 3.50   0.0000    120.9218    787.4944 -42.80     53124.23     1.968           25     1.946      1.532  0.002333833  16.2368         38
 4.45   0.0000     89.6612    375.3125  -8.91     665.7531     2.201           25     1.789      3.582  0.002334362  20.9917         39
 6.18   0.0000     78.6917   1031.9766  -2.38     56.10441     0.736           25     0.670      1.127   0.00233489  23.6775         40
 3.56   0.0000     95.6111     54.3885  -6.13     2567.758     1.499           25     1.459      1.000  0.002334626  19.5261         41
 7.29   0.0000     82.9674    930.9600  44.16     129.0438     0.895           25     0.533      2.303  0.002336476  22.7732         42
 5.73   0.0000     87.5743    757.3250  46.61     180.4923     1.080           25     0.936      1.725  0.002335419  22.4089         43
 6.11   0.0000     87.1081   1358.1217 -47.31     89.70711     0.830           25     0.673      1.356  0.002334097  23.1679         44
 6.78   0.0000     90.7097   1043.9907  53.54     61.29585     1.023           25     0.635      1.497   0.00233489  23.5814         45
 4.26   0.0000     90.5881    494.1471 -16.01     234.1668     1.006           25     0.941      0.946   0.00233674  22.1262         46
 9.28   0.0000     86.4881    862.0151 -32.06     109.5729     0.798           25     0.313      2.157  0.002335683  22.9507         47
 7.82   0.0000     87.6720    810.6771 -45.24     61.10152     0.570           25     0.337      1.721  0.002334362  23.5849         48
 4.33   0.0000     97.0989    451.1919 -14.65     469.4645     1.886           25     1.112      2.452  0.002334626  21.3710         49
 7.09   0.0000     94.3153    387.6701  44.29     111.4689     0.568           25     0.338      1.326  0.002333833  22.9321         50
 8.24   0.0000    101.5233    517.4830  44.00     91.05856     0.503           25     0.496      1.972  0.002334626  23.1517         51
 4.85   0.0000    107.1691    861.1779 -44.69     93.23457     0.793           25     0.684      0.796  0.002335683  23.1261         52
 6.49   0.0000    114.3650    414.1011  78.71     134.9016     0.993           25     0.745      1.301  0.002333304  22.7250         53
 7.57   0.0001    109.7253   1513.3552  40.66     40.00791     0.559           25     0.340      1.012  0.002334626  24.0446         54
 3.86   0.0000    116.2039    989.3252  17.90     80.47941     0.959           25     0.862      1.405  0.002337004  23.2858         55
 3.92   0.0000    116.6458    152.3968 -48.96     133.2586     0.987           25     0.861      1.010  0.002337004  22.7383         56
 4.90   0.0000    116.3229     65.0629   2.91     178.9813     1.238           25     0.962      1.339  0.002334362  22.4180         57
 5.23   0.0000    125.3040    492.6458   3.72     142.2729     1.313           25     0.899      2.125  0.002333304  22.6672         58
 3.50   0.0000    161.4527   1466.8275 -62.60     32927.48     1.887           25     1.855      1.479  0.002336476  16.7561         59
 4.88   0.0000    130.2532    416.4069  19.77     152.2515     0.953           25     0.914      1.038  0.002337533  22.5936         60
 5.93   0.0000    128.2914    884.0579   6.49     110.0902     0.731           25     0.675      1.284  0.002334097  22.9456         61
 5.03   0.0000    127.2593   1476.9744   1.55     63.82694     0.661           25     0.438      1.181  0.002336476  23.5375         62
 7.12   0.0000    142.3000    885.0659  72.53     130.3904     1.010           25     0.747      5.245   0.00233489  22.7619         63
 3.50   0.0000    169.2886    875.6515 -60.73     9927.313     1.717           25     1.674      1.128  0.002334362  18.0579         64
 3.50   0.0000    150.5815   1278.7736  82.35     198.0506     0.961           25     0.925      1.192  0.002335948  22.3081         65
 4.49   0.0000    154.5294     80.6534 -67.71     139.5305     0.937           25     0.808      1.096  0.002334626  22.6883         66
 4.01   0.0000    164.1869   1444.2914  47.23     682.5137     1.315           25     1.220      1.248  0.002335419  20.9647         67
 5.87   0.0000    155.0629   1578.6616 -89.90     73.89229     0.730           25     0.649      1.282  0.002335155  23.3785         68
 3.50   0.0000    165.7468    102.6053 -27.35     586.6597     1.257           25     1.163      0.989  0.002337533  21.1290         69
 5.28   0.0000    165.0033    574.9867  75.43     120.7552     1.228           25     0.718      1.617   0.00233489  22.8452         70
 4.67   0.0000    168.4867   1367.4685  20.67     173.4839     1.009           25     0.988      1.274  0.002333568  22.4519         71
 5.84   0.0000    167.9813    649.5107   1.35       128.49     1.038           25     0.782      1.256  0.002335419  22.7778         72
 4.73   0.0000    179.2377    573.5081  32.97     360.0608     1.568           25     1.257      2.072  0.002334097  21.6591         73
 5.49   0.0000    185.8672   1353.5756 -50.21     288.8926     1.474           25     1.273      1.440  0.002335948  21.8982         74
 3.93   0.0000    191.7892   1349.0759 -17.92     910.6614     1.315           25     1.260      1.278  0.002337004  20.6516         75
 3.73   0.0000    209.8528    826.1118  -7.48     3041.458     4.622           25     2.153      6.555  0.002333833  19.3423         76
 4.16   0.0000    229.0615    560.6190 -23.24     2785.458     3.757           25     3.430      7.097  0.002335948  19.4378         77
 3.50   0.0000    205.7428    547.4331 -50.08      1810.05     1.413           25     1.388      0.926  0.002336212  19.9058         78
 6.65   0.0000    195.0215    447.7135 -85.09     121.1395     0.732           25     0.676      1.187  0.002335419  22.8418         79
 3.50   0.0000    211.4102   1304.6077 -40.53     1704.765     1.411           25     1.380      1.051  0.002334626  19.9708         80
 4.33   0.0000    209.9548    683.0822 -80.09     426.9059     1.518           25     1.217      1.519  0.002334626  21.4742         81
 6.95   0.0000    204.8301    182.1670 -44.93      98.0445     0.758           25     0.571      1.556  0.002336476  23.0714         82
 3.78   0.0000    208.1468   1224.1273 -14.49     133.9533     0.861           25     0.844      1.207  0.002334626  22.7326         83
 3.50   0.0000    258.9254    995.8104 -43.31      86268.3     2.092           25     2.025      1.564  0.002337004  15.7104         84
 7.67   0.0000    204.5729    935.2369 -19.75     116.5224     0.733           25     0.455      1.827  0.002335683  22.8840         85
 3.50   0.0000    223.2786   1224.6028  20.19     2077.342     1.411           25     1.403      1.020  0.002336212  19.7562         86
 6.28   0.0000    216.9193    739.7366 -46.49      193.229     1.323           25     1.013      2.771  0.002334097  22.3348         87
 3.50   0.0000    221.6176    773.3508 -32.33     667.8486     1.262           25     1.233      1.036  0.002335948  20.9883         88
 7.43   0.0000    216.1229    881.6307 -66.69      91.0254     1.120           25     0.572      3.659  0.002335419  23.1521         89
 3.50   0.0000    264.9534     65.7731 -32.20     65206.04     2.028           25     1.996      1.506   0.00233674  16.0143         90
 4.32   0.0000    243.0270    111.0771 -85.87     1113.296     2.181           25     1.625      2.295  0.002335419  20.4335         91
 6.77   0.0000    229.2600    546.3682 -62.66     146.9223     1.147           25     0.927      2.639  0.002335948  22.6323         92
 4.17   0.0000    254.5277    611.2526 -44.96     2889.648     2.599           25     2.118      2.303  0.002334626  19.3979         93
 4.56   0.0000    238.4033    837.2197  -0.07     361.1116     1.538           25     1.343      1.645  0.002335419  21.6559         94
 7.00   0.0000    232.2851   1551.6707  42.41     71.88439     0.554           25     0.344      1.046  0.002333833  23.4084         95
 6.05   0.0000    238.8988   1477.2656 -62.39     78.73188     1.007           25     0.650      1.251  0.002335155  23.3096         96
 5.07   0.0000    249.5192    105.7907 -39.60     307.2783     1.353           25     1.158      1.139  0.002335419  21.8312         97
 6.74   0.0000    247.9741   1412.9532  34.10      86.1856     0.809           25     0.777      1.779   0.00233674  23.2114         98
 6.52   0.0000    250.1559   1549.1664 -46.24      105.318     0.825           25     0.674      1.399   0.00233674  22.9937         99
 8.32   0.0000    248.6070    149.8001  18.07     89.37352     0.742           25     0.453      1.161  0.002334626  23.1720        100
 3.50   0.0000    286.7198   1484.9985 -34.86     19669.17     1.803           25     1.773      1.412  0.002336212  17.3155        101
 3.50   0.0000    281.0606   1520.9103  78.86     4815.296     1.578           25     1.503      1.182  0.002334626  18.8434        102
 7.88   0.0000    264.4987    722.9905 -89.56      160.016     0.852           25     0.694      3.681  0.002334626  22.5396        103
 6.08   0.0000    264.5280    122.1684 -89.38     168.4028     0.938           25     0.736      1.172  0.002335683  22.4841        104
 4.61   0.0000    269.9497   1272.2324   9.29     332.0269     1.380           25     1.179      1.430  0.002336212  21.7471        105
 7.75   0.0001    270.3510   1248.7195  48.76      39.9917     0.560           25     0.340      1.049  0.002334626  24.0451        106
 3.50   0.0000    302.1461    199.9575  -1.01     15669.89     1.754           25     1.748      1.288  0.002335683  17.5623        107
 8.12   0.0000    278.4984    555.4962 -45.05     73.65052     0.503           25     0.497      1.826  0.002333833  23.3821        108
 4.55   0.0000    292.5302   1474.2421 -21.60     646.6346     1.506           25     1.241      1.341  0.002335683  21.0234        109
 5.27   0.0000    291.4895    246.7583 -31.60     150.7377     1.130           25     0.933      1.264   0.00233489  22.6044        110
 3.50   0.0000    301.2911    561.8903  -3.92     844.8826     1.383           25     1.345      1.118  0.002333304  20.7330        111
 5.62   0.0000    307.7112     83.4766  74.73     284.4345     1.692           25     1.285      2.486  0.002333568  21.9150        112
 3.50   0.0000    321.1615    695.6137 -47.99     11341.73     1.682           25     1.667      1.113  0.002336476  17.9133        113
 3.98   0.0000    320.8418    639.7523 -62.45      658.884     2.244           25     1.508      3.117  0.002336476  21.0030        114
 4.25   0.0000    326.5584    593.7395  -1.29     1476.001     1.915           25     1.868      1.307  0.002335683  20.1273        115
 7.56   0.0000    310.0077    315.3219  87.28     190.8383     0.749           25     0.679      2.189  0.002336212  22.3483        116
 5.25   0.0000    315.9547    225.1773  -9.26     216.5937     1.107           25     0.728      1.479  0.002336212  22.2109        117
 3.71   0.0000    331.2021     91.6054 -20.61     425.9005     1.213           25     1.064      1.122  0.002335155  21.4767        118
 4.22   0.0000    328.4932   1544.6573   0.89     346.8696     1.102           25     0.968      1.111  0.002334097  21.6996        119
 3.62   0.0000    349.0294     52.9462 -35.30     961.0113     1.319           25     1.295      1.091  0.002336476  20.5932        120
 3.50   0.0000    367.2354    759.4962 -26.09     11394.62     1.732           25     1.685      1.148  0.002333568  17.9082        121
 5.45   0.0000    347.3217     40.6653 -50.68     137.2366     0.987           25     0.848      1.076  0.002333833  22.7063        122
 3.50   0.0000    360.3835   1498.9019 -13.41     1923.318     1.548           25     1.385      1.192   0.00233489  19.8399        123
 3.50   0.0000    394.2159    229.6349 -70.43     39785.49     1.952           25     1.907      1.446  0.002336476  16.5507        124
 3.50   0.0000    359.7347   1032.5051  38.29     455.3343     1.217           25     1.170      1.021   0.00233489  21.4042        125
 4.74   0.0000    374.2932    752.1290  51.98     374.1976     2.168           25     1.272      2.524  0.002334362  21.6172        126
 4.80   0.0000    369.4625     69.8472 -56.93      220.528     1.299           25     1.090      1.145   0.00233489  22.1913        127
 3.74   0.0000    372.4083   1082.3356 -32.85     345.8453     1.433           25     1.350      1.754  0.002337269  21.7028        128
 6.16   0.0000    368.3817    208.3981 -49.89     143.4423     1.080           25     0.933      1.297  0.002335155  22.6583        129
 3.99   0.0000    374.3221     85.4926 -20.10     206.7688     0.963           25     0.937      1.086  0.002334097  22.2613        130
 3.50   0.0000    396.2272   1459.7446 -45.85     7937.318     1.624           25     1.598      1.190  0.002336476  18.3008        131
 4.45   0.0000    379.1256    123.9208  61.23      290.423     1.113           25     1.110      1.188  0.002334626  21.8924        132
 3.50   0.0000    397.1835    352.8708 -58.84     8992.457     1.677           25     1.629      1.191  0.002337004  18.1653        133
 5.17   0.0000    381.4269     65.5967  24.25     237.2908     1.219           25     0.932      1.254  0.002335419  22.1118        134
 3.50   0.0000    392.8812   1087.1532  12.39     1861.167     1.405           25     1.374      1.089  0.002334626  19.8755        135
 5.14   0.0000    395.6750    625.1777 -87.51      578.197     1.901           25     1.613      4.621  0.002336212  21.1448        136
 7.24   0.0000    381.7726      9.7077   6.31     189.7211     0.910           25     0.766      4.400   0.00233489  22.3547        137
 4.10   0.0000    388.2085   1193.8507 -68.22     181.9101     0.938           25     0.836      1.215  0.002337004  22.4004        138
 5.53   0.0000    388.9485    259.0594 -52.23     144.6369     0.785           25     0.765      0.902   0.00233489  22.6493        139
 6.06   0.0000    402.5840    524.8780  69.21     253.0304     1.851           25     1.097      2.639  0.002336212  22.0421        140
 5.84   0.0000    390.9066     93.6741 -22.09     156.2815     0.924           25     0.686      1.369  0.002334097  22.5652        141
 6.27   1.3449    389.5344   1166.5160 -36.27  0.001884554     0.501           25     0.498      1.699  0.002333833  34.8620        142
 7.01   0.0000    391.6848    682.3162  44.95     93.98396     0.562           25     0.341      1.136  0.002333568  23.1174        143
 4.24   0.0000    406.2444    280.4964 -16.87      221.085     0.962           25     0.920      0.984  0.002333568  22.1886        144
 3.50   0.0000    460.3213    806.0107 -46.26     98701.05     2.106           25     2.042      1.632  0.002336212  15.5642        145
 4.58   0.0000    412.6144   1560.6858 -64.13     205.9983     1.537           25     0.822      2.345  0.002335683  22.2653        146
 3.50   0.0000    436.9956    250.2900  56.83     17247.89     1.797           25     1.784      1.285  0.002334626  17.4582        147
 4.69   0.0000    419.8044    157.4340  37.44      693.617     1.859           25     1.574      1.922  0.002335948  20.9472        148
 6.25   0.0000    420.4099    132.9167 -23.24     401.1156     2.382           25     1.586      7.083  0.002335419  21.5418        149
 6.17   0.0000    414.2697    557.6743  73.25     204.8775     1.262           25     1.094      2.761  0.002333568  22.2713        150
 5.30   0.0000    417.7565   1202.9871 -88.95     156.9264     1.063           25     0.957      1.506  0.002335948  22.5608        151
 4.88   0.0000    418.9438   1579.2106 -55.51     211.2082     0.956           25     0.867      1.320   0.00233674  22.2382        152
 4.22   0.0000    425.7952   1177.7819  35.72     428.3213     1.653           25     1.304      1.810  0.002335155  21.4706        153
 3.58   0.0000    418.4176    773.0535 -17.29     147.8487     1.167           25     0.954      1.282  0.002336476  22.6255        154
 6.96   0.0000    429.8715    717.5161  66.89     344.7837     1.757           25     1.402      4.941  0.002333833  21.7061        155
 4.72   0.0000    419.8337   1090.8477  44.64     105.1498     0.737           25     0.567      1.247  0.002336212  22.9955        156
 3.81   0.0000    423.4600   1062.4460  -6.26     170.5648     0.905           25     0.876      1.186  0.002335419  22.4703        157
 3.50   0.0000    432.1028   1420.5724  -8.19     1218.957     1.389           25     1.301      0.974  0.002334362  20.3350        158
 4.30   0.0000    425.3427    298.3037  50.64     203.1155     0.955           25     0.848      0.894  0.002333568  22.2806        159
 4.28   0.0000    467.0042    848.9381  22.51     3581.614     8.370           25     2.166     11.380  0.002337269  19.1648        160
 3.50   0.0000    449.3257     19.5274  89.05     5663.982     1.664           25     1.583      1.053  0.002333568  18.6672        161
 7.08   0.0000    426.6717    431.8233  -4.01     10711.62     1.845           25     0.645      4.157  0.002336476  17.9754        162
 3.86   0.0000    433.0565    149.3928   0.63     571.0896     1.251           25     1.126      0.898  0.002337533  21.1582        163
 6.16   0.0000    425.5312   1007.4691 -44.93     104.4223     0.503           25     0.495      1.445  0.002334097  23.0030        164
 5.45   0.0000    432.6343    404.8666 -67.50     135.9491     0.884           25     0.681      1.133  0.002336212  22.7166        165
 3.50   0.0000    439.0594    303.9707 -84.52     614.4357     1.189           25     1.152      0.949  0.002336476  21.0788        166
 4.90   0.0000    432.9586    351.7667   0.24      117.513     0.878           25     0.745      1.063   0.00233674  22.8748        167
 4.52   0.0000    444.1693    120.4328 -23.43     671.4956     1.640           25     1.460      1.323  0.002336476  20.9824        168
 3.50   0.0000    456.8178     32.7492 -13.24     6392.493     1.621           25     1.612      1.041  0.002336212  18.5358        169
 4.74   0.0000    442.8110    653.4979   4.23     181.7782     0.955           25     0.916      0.978  0.002334362  22.4011        170
 5.49   0.0000    442.7400    172.5344 -14.40     278.6953     0.969           25     0.938      1.341   0.00233489  21.9372        171
 5.34   0.0000    441.2756    957.9990  -3.07     107.3946     0.736           25     0.668      1.281  0.002336476  22.9725        172
 5.84   0.0000    444.6807   1503.8907 -66.53     71.19569     0.881           25     0.692      1.277  0.002334362  23.4189        173
 3.50   0.0000    452.0424   1531.8308  50.93      320.567     1.087           25     1.045      1.261   0.00233674  21.7852        174
 3.53   0.0000    462.7248    466.8766  54.53     1865.289     1.528           25     1.420      1.005  0.002334362  19.8731        175
 4.58   0.0000    453.5055   1222.7900 -80.84     145.0447     1.005           25     0.942      1.108   0.00233489  22.6462        176
 3.50   0.0000    460.1031   1094.6326  27.13     569.8854     1.360           25     1.147      1.096  0.002333833  21.1605        177
 7.32   0.0000    450.7377   1129.9933  -0.37     53.03013     0.680           25     0.440      1.460  0.002337004  23.7387        178
 3.68   0.0000    470.5123    252.6244  50.51     1621.913     1.664           25     1.413      1.052  0.002335419  20.0249        179
 3.50   0.0000    471.1100    733.2299 -28.65     2360.875     1.470           25     1.438      0.817   0.00233489  19.6173        180
 4.94   0.0000    460.6171    723.3906  -3.05     323.8121     1.697           25     1.108      1.879   0.00233489  21.7743        181
 4.79   0.0000    466.0485   1196.8596  64.88     122.6483     1.193           25     0.977      1.578  0.002335155  22.8283        182
 3.50   0.0000    477.0088    921.4022 -48.00     3003.689     1.493           25     1.454      0.854   0.00233489  19.3559        183
 5.79   0.0000    472.4925   1131.0585  85.53     158.6321     1.659           25     0.712      2.932  0.002333833  22.5490        184
 3.94   0.0000    488.1000    838.0156 -88.39     440.9679     2.892           25     1.117      3.545   0.00233489  21.4390        185
 5.73   0.0000    464.9706    559.9498  58.03     141.3462     0.790           25     0.774      1.210  0.002336476  22.6743        186
 7.57   0.0000    464.8344    127.1186  41.21     175.8332     0.830           25     0.672      4.154  0.002335419  22.4372        187
 3.50   0.0000    477.0140   1275.3693 -57.85     1035.233     1.328           25     1.228      0.834  0.002336476  20.5124        188
 4.42   0.0000    495.3752     81.0658 -83.31     1759.387     2.692           25     2.476      4.556  0.002335948  19.9366        189
 4.01   0.0000    475.1675   1166.7126 -61.43     220.7517     1.021           25     0.867      1.080  0.002335683  22.1902        190
 4.11   0.0000    495.0201   1185.2123 -22.44     1784.789     3.378           25     2.256      5.602  0.002335155  19.9210        191
 7.96   0.0000    487.6410    422.9437 -43.87     275.6923     1.438           25     0.744      6.239  0.002335155  21.9489        192
 6.24   0.0000    471.9751    780.0502  45.27     64.11205     0.795           25     0.769      0.927  0.002337004  23.5326        193
 3.50   0.0000    483.0327   1069.1105 -26.42     1346.478     1.334           25     1.295      1.211   0.00233489  20.2270        194
 3.85   0.0000    477.9255    681.0380 -57.38     249.6286     1.126           25     1.091      1.208  0.002335419  22.0568        195
 7.17   0.0000    480.0004   1517.9857 -44.97     147.2201     0.820           25     0.777      2.427  0.002335155  22.6301        196
 6.51   0.0000    485.2421    827.3867  72.23     74.52527     0.737           25     0.454      0.989  0.002335948  23.3692        197
 4.28   0.0000    503.2693    761.2949  -2.52     1006.252     2.092           25     1.899      2.349  0.002334626  20.5432        198
 3.55   0.0000    514.5264   1459.5746  24.92     2338.696     4.620           25     1.709      6.110  0.002335948  19.6276        199
 3.50   0.0000    501.1653    862.1982 -68.30     675.4323     1.260           25     1.239      0.783  0.002335419  20.9760        200
 3.93   0.0000    497.1030    364.7048  39.03     300.6401     1.115           25     1.009      1.063  0.002333304  21.8549        201
 5.27   0.0000    492.0516    573.0049 -38.24     138.1807     0.786           25     0.768      1.291  0.002337269  22.6989        202
 5.66   0.0000    494.6029   1419.7804  15.87     100.5462     0.927           25     0.635      1.272  0.002335419  23.0441        203
 8.41   0.0000    524.8232    527.8972  51.21     749.6177     2.400           25     0.992      9.815  0.002334626  20.8629        204
 5.22   0.0000    501.8875    441.1881  46.80     93.08826     0.810           25     0.677      0.873  0.002335948  23.1278        205
 5.47   0.0000    509.2064    451.7516  41.34     142.2497     1.114           25     1.009      1.201   0.00233674  22.6674        206
 4.78   0.0000    509.0068    162.6792  -5.94     684.6256     2.318           25     1.137      3.520  0.002335683  20.9614        207
 3.50   0.0000    504.1267   1567.7828  50.06     127.3595     0.794           25     0.675      1.283  0.002337269  22.7874        208
 3.69   0.0000    512.8627   1177.7903 -17.94     754.1703     1.269           25     1.218      1.192  0.002337269  20.8563        209
 8.24   0.0000    504.5149    324.5055  43.77     137.7405     0.502           25     0.498      1.914  0.002333039  22.7023        210
 7.12   0.0000    508.4908    306.9737   0.51     109.6075     0.785           25     0.500      1.295   0.00233489  22.9504        211
 4.19   0.0000    518.2950    640.2903 -36.71      518.478     1.394           25     1.256      1.280  0.002333304  21.2632        212
 4.99   0.0000    519.8651    852.2338  66.63     162.3222     1.133           25     1.030      1.312  0.002335683  22.5241        213
 4.40   0.0000    517.4777   1517.8848   0.04     259.3484     1.046           25     0.934      1.290  0.002334097  22.0153        214
 8.77   0.0000    517.8887    510.9940   3.40     627.6285     2.971           25     0.544      7.307  0.002335155  21.0557        215
 3.50   0.0000    539.3477    998.3590   2.64     1916.357     1.412           25     1.384      0.996  0.002335683  19.8438        216
 3.93   0.0000    535.1251    402.7598  21.84       317.24     1.596           25     1.194      1.763  0.002335419  21.7965        217
 7.99   0.0000    527.9743    163.0000  90.00     139.2702     0.852           25     0.289      2.159  0.002335155  22.6904        218
 4.60   0.0000    530.9355   1565.0040   9.01     79.22843     0.774           25     0.765      1.241  0.002337004  23.3028        219
 4.67   0.0000    543.0765    932.5807 -68.48     214.9614     1.732           25     0.811      2.986  0.002336476  22.2191        220
 3.50   0.0000    558.0293   1040.1958  -5.64     2540.064     1.549           25     1.459      1.017  0.002335683  19.5379        221
 5.39   0.0000    545.0844    849.4919  -0.94     74.90011     0.802           25     0.700      1.192  0.002333833  23.3638        222
 3.50   0.0000    555.0635    777.2687  27.21     217.3556     1.028           25     0.953      1.206  0.002334626  22.2071        223
 3.65   0.0000    595.7348    781.1718 -63.27      4277.16     3.830           25     3.549      6.910  0.002335683  18.9721        224
 3.50   0.0000    570.7157   1446.9326  22.27     1396.739     2.993           25     1.845      3.921  0.002334362  20.1872        225
 3.98   0.0000    570.2687     44.1231  49.99     1560.406     2.224           25     1.535      2.274  0.002333568  20.0669        226
 3.50   0.0000    581.1951    317.4497  29.54     11008.67     1.747           25     1.702      1.121  0.002337269  17.9457        227
 6.12   0.0000    553.9739    804.0167  88.84     94.74345     0.623           25     0.605      1.249  0.002335948  23.1086        228
 8.01   0.0000    552.5358    964.5056 -38.96     56.49369     0.502           25     0.496      1.261   0.00233489  23.6700        229
 4.58   0.0000    563.7872    137.7444  32.23     446.0528     1.188           25     1.150      1.062  0.002336476  21.4265        230
 6.53   0.0000    558.3522   1067.7384  70.11     91.64854     1.009           25     0.586      1.816   0.00233489  23.1447        231
 3.50   0.0000    579.6493    143.1600 -43.45     11265.81     1.687           25     1.667      1.114  0.002335948  17.9206        232
 3.96   0.0000    562.0146    904.2037   4.79     139.5184     0.877           25     0.747      1.165   0.00233489  22.6884        233
 4.83   0.0000    562.0154    838.9894 -52.41     99.76187     0.807           25     0.770      1.337  0.002335155  23.0526        234
 6.45   0.0000    563.1900   1168.8391 -43.80     59.96657     0.754           25     0.567      1.465  0.002335948  23.6052        235
 3.95   0.0000    575.2686   1000.1991  28.86     434.5179     1.520           25     1.458      1.581   0.00233674  21.4550        236
 6.02   0.0000    566.0034    630.5092  -1.39     140.2512     0.792           25     0.695      1.147  0.002334626  22.6827        237
 8.19   0.0000    566.4948   1114.5162  54.52      100.856     0.500           25     0.499      1.166  0.002332774  23.0407        238
 5.87   0.0000    569.1263    112.1452 -45.97      93.6208     0.838           25     0.672      1.317  0.002334626  23.1216        239
 5.26   0.0000    577.7077    843.5986  24.44     212.9558     1.475           25     0.762      2.556   0.00233489  22.2293        240
 7.03   0.0000    577.4185    738.3541  47.92     219.2974     1.015           25     0.884      2.251  0.002336212  22.1974        241
 3.50   0.0000    583.4576     74.2711 -27.96     620.7451     1.268           25     1.210      0.983   0.00233489  21.0677        242
 7.36   0.0000    578.2991    677.7164  44.07     194.7288     0.967           25     0.776      2.131  0.002332774  22.3264        243
 7.57   0.0000    577.6680    694.7030 -46.88     58.56458     0.560           25     0.341      1.176   0.00233489  23.6309        244
 4.79   0.0000    584.4865   1171.3466  68.69     258.2529     0.959           25     0.955      1.064  0.002334097  22.0199        245
 7.02   0.0000    582.9680   1099.4989 -88.09     90.37437     0.792           25     0.500      1.486  0.002333568  23.1599        246
 6.04   0.0001    581.5252   1485.4666  46.11     46.30314     0.505           25     0.493      0.994  0.002333568  23.8860        247
 4.82   0.0000    587.6062   1137.7240  42.86     151.9141     0.953           25     0.858      1.123   0.00233674  22.5960        248
 7.49   0.0000    583.5229    209.5023  37.69     94.24385     0.501           25     0.499      1.123  0.002333833  23.1144        249
 3.98   0.0000    997.2316    231.6387  84.02     600.4706     1.040           25     0.962      0.997  0.002336476  21.1038        250
 5.66 9707.7930   1598.8354    709.3201  17.50 2.090633e-07     0.941           25     0.671      4.183  0.001868824  44.7493        251
 4.11   0.0000   1596.7023    653.1345 -14.31     373.2042     2.011           25     1.862      3.718  0.002098768  21.6201        252
 5.80   0.0514   1599.3304     17.0655   6.89   0.03816682     1.583           25     0.655      4.016  0.001805661  31.5958        253
 3.99   0.0000   1593.4718    372.3271  59.30     490.5679     1.523           25     1.258      1.180  0.002322963  21.3233        254
 5.86   0.0000    909.0859   1573.9731 -32.13     119.5053     0.798           25     0.778      1.375  0.002335419  22.8565        255
 5.62   0.0000    907.3624    657.8864 -14.76     260.8763     1.056           25     0.961      1.448  0.002335419  22.0089        256
 5.93   0.0000    907.9376      3.3812 -16.27     169.1241     1.031           25     0.741      1.346  0.002007061  22.4795        257
 4.74   0.0000    903.0575    733.5118   2.25     154.2884     0.791           25     0.689      1.394  0.002334362  22.5792        258
 3.50   0.0000    899.4453    301.1092 -79.29     7138.792     1.630           25     1.603      1.101  0.002334097  18.4159        259
 4.24   0.0000    895.2208    536.9806   6.17     1389.102     2.238           25     1.768      2.422  0.002335683  20.1932        260
 6.33   0.0000    898.4979    378.4744 -46.75     205.0771     0.505           25     0.494      1.023  0.002333833  22.2702        261
 4.07   0.0000    896.1499    985.7686 -78.87     255.2034     1.155           25     0.969      1.132  0.002336476  22.0328        262
 7.14   0.0000    894.4000   1569.8065 -19.17     106.8447     0.741           25     0.450      1.241  0.002334626  22.9781        263
 4.05   0.0000    893.0034   1424.8406  -4.02     424.2057     1.175           25     1.081      1.221  0.002335948  21.4811        264
 3.50   0.0000    879.3679   1591.1768 -65.43     58943.87     2.050           25     1.979      1.914  0.002335419  16.1239        265
 4.85   0.0000    887.5698    324.3025  15.33     819.5884     2.155           25     1.546      2.647  0.002334097  20.7660        266
 4.66   0.0000    887.7139    679.6675 -31.59     234.0851     1.207           25     0.985      1.280  0.002333833  22.1266        267
 3.71   0.0000    884.8433   1498.7693 -28.53     919.0716     1.263           25     1.203      1.111   0.00233674  20.6416        268
 5.89   0.0000    883.9937    337.4917  14.13     476.5504     1.674           25     1.162      1.769   0.00233489  21.3547        269
 6.44   0.0000    878.6037    670.2805 -33.92     251.1706     1.220           25     0.885      1.829  0.002335948  22.0501        270
 3.50   0.0000    876.6116    959.5165 -75.63     602.3367     1.188           25     1.159      1.001  0.002335948  21.1004        271
 4.74   0.0000    875.3988    540.0956 -18.70     244.2462     1.104           25     0.941      1.156  0.002335419  22.0804        272
 3.61   0.0000    868.4432   1102.0897 -52.52     2413.734     1.978           25     1.764      1.463   0.00233489  19.5933        273
 3.50   0.0000    866.7821    938.0223  43.14     999.6021     2.341           25     1.464      2.686  0.002335419  20.5504        274
 4.03   0.0000    868.4462    642.1702   1.65     330.7354     1.108           25     0.971      0.972   0.00233674  21.7513        275
 4.61   0.0000    865.6735    453.2921 -43.90     203.8491     1.023           25     0.859      1.333  0.002334626  22.2767        276
 4.40   0.0000    863.9810   1477.9620  41.14     163.3613     0.784           25     0.771      1.256  0.002336476  22.5171        277
 6.33   0.0000    863.4897    353.4914   4.48     190.9027     0.907           25     0.900      1.176  0.002333568  22.3480        278
 4.68   0.0000    859.5967   1552.9791  88.22     188.3273     0.982           25     0.777      1.281  0.002335419  22.3627        279
 3.83   0.0000    857.4876   1338.7616 -82.33      719.036     1.339           25     1.031      1.940  0.002335155  20.9081        280
 5.43   0.0000    854.6078    543.6538 -85.84     303.8941     1.306           25     1.094      1.478  0.002337533  21.8432        281
 8.00   0.0000    854.4573   1346.4805  34.07     76.17136     0.501           25     0.497      1.099  0.002334626  23.3455        282
 7.29   0.0000    845.6961    360.3315 -13.21     462.0716     1.533           25     1.183      4.399  0.002334626  21.3882        283
 3.54   0.0000    842.4099   1104.7104  29.74     1080.505     1.740           25     1.381      1.234  0.002335419  20.4659        284
 3.50   0.0000    843.9447   1062.4344 -12.26     571.7035     1.214           25     1.148      0.852  0.002335948  21.1571        285
 3.67   0.0000    835.5275    297.0648 -62.06     1567.072     1.404           25     1.343      0.957  0.002333833  20.0623        286
 5.08   0.0000    836.8608    990.4802 -11.26     235.4148     1.028           25     0.873      1.258  0.002334362  22.1204        287
 3.55   0.0000    835.6268   1519.0900 -19.16      241.442     0.992           25     0.927      1.250  0.002335155  22.0930        288
 3.53   0.0000    834.6511    817.5978 -14.49     390.1875     1.140           25     1.039      1.081  0.002337269  21.5718        289
 3.50   0.0000    822.0486    652.7755 -40.96     7022.288     1.650           25     1.642      1.127   0.00233674  18.4338        290
 5.17   0.0000    821.0284    328.9836 -51.85     163.8754     0.788           25     0.765      1.100  0.002335948  22.5137        291
 3.50   0.0000    818.7283   1397.2321 -46.31     192.5031     0.961           25     0.847      1.392  0.002335683  22.3389        292
 5.15   0.0000    817.8800    777.8314 -48.61     190.1061     0.840           25     0.663      1.382  0.002335419  22.3525        293
 4.26   0.0000    817.8155    701.3275 -20.64     263.2265     0.960           25     0.914      0.926  0.002337269  21.9992        294
 5.01   0.0000    814.5070    876.6308 -58.49     324.8433     1.463           25     0.894      1.670  0.002334626  21.7708        295
 3.50   4.5108    808.9119   1543.2889  72.88 0.0005617501     1.086           25     0.914      2.991  0.002333304  36.1761        296
 5.54   0.0000    808.5829    842.7518  18.17     94.19706     0.713           25     0.463      1.030  0.002335948  23.1149        297
 3.50   0.0000    802.1667   1377.2756 -63.74     6708.479     1.649           25     1.576      1.298  0.002335155  18.4834        298
 3.50   0.0000    797.5811    694.0720 -87.91     18373.43     2.495           25     1.754      2.005  0.002337004  17.3895        299
 3.50   0.0000    799.6505     39.3665 -22.80     3114.433     1.666           25     1.449      0.965  0.002336212  19.3166        300
 7.36   0.0016    800.6880   1595.3070  45.29     1.521874     0.556           25     0.343      2.801   0.00221691  27.5941        301
 6.03   0.0000    793.2582    294.0250 -66.59     182.3267     1.173           25     1.055      1.534  0.002336476  22.3979        302
 4.85   0.0000    785.2255   1347.6593  61.89     99.21773     0.809           25     0.601      1.123  0.002336476  23.0585        303
 3.50   0.0000    773.3425   1425.9152 -89.76     2159.608     3.452           25     2.118      4.693  0.002334097  19.7141        304
 4.88   0.0000    766.9306    138.3648 -19.84     369.4616     1.320           25     1.193      1.352  0.002335948  21.6311        305
 4.61   0.0000    766.3534    928.7696 -73.50     161.5812     0.988           25     0.871      1.366   0.00233674  22.5290        306
 4.35   0.0000    763.2698    565.8460  45.86     155.4244     0.876           25     0.849      1.149  0.002335155  22.5712        307
 4.47   0.0000    756.6685   1339.7045 -45.10     230.4503     1.526           25     0.855      2.432  0.002334626  22.1436        308
 8.81   0.0000    757.4788    104.4729 -45.62     165.6485     0.506           25     0.493      1.917  0.002334626  22.5020        309
 5.64   0.0000    753.8141    194.1191  75.68     533.6434     1.668           25     1.595      3.370  0.002336212  21.2319        310
 5.09   0.0000    751.6815   1078.8489 -67.05     172.3089     0.901           25     0.674      1.282  0.002334626  22.4592        311
 7.63   0.0000    743.6953    839.3754 -42.13     223.4143     1.166           25     1.085      6.524   0.00233489  22.1772        312
 3.50   0.0000    741.7999    554.6925 -20.55     1629.166     1.429           25     1.401      1.064   0.00233489  20.0201        313
 3.50   0.0000    737.1581   1156.5890 -27.41      571.131     1.215           25     1.175      1.012  0.002335948  21.1582        314
 6.88   0.0000    738.4052   1271.2267  18.82     120.9395     0.739           25     0.453      1.028  0.002335948  22.8436        315
 3.88   0.0000    735.0988    648.1861 -28.40     632.4478     1.236           25     1.140      0.961   0.00233489  21.0474        316
 3.50   0.0000    725.6367    846.8282   8.09     50990.34     1.996           25     1.970      1.478  0.002335948  16.2813        317
 3.50   0.0000    726.5267   1176.8077 -19.03       1110.1     1.345           25     1.276      1.170  0.002336212  20.4366        318
 8.21   0.0000    728.9957    751.5101 -89.92     99.98588     0.799           25     0.500      2.727  0.002334626  23.0502        319
 5.34   0.0000    727.8087   1542.4133 -70.41      133.109     0.728           25     0.454      1.496  0.002334626  22.7395        320
 3.59   0.0000    720.4454   1393.5422  18.35     444.7159     1.348           25     1.077      1.240  0.002335419  21.4298        321
 8.35   0.0000    721.4725    260.5168 -43.13     71.24805     0.503           25     0.496      1.168  0.002333833  23.4181        322
 3.50   0.0000    714.9188    806.8574 -17.41     1416.309     1.377           25     1.335      1.119  0.002334626  20.1721        323
 3.50   0.0000    708.0578   1162.3623   0.33     1455.808     1.370           25     1.330      0.915  0.002335948  20.1422        324
 7.71   0.0000    709.1875    193.1935  45.49     148.9001     0.764           25     0.569      2.181  0.002334097  22.6178        325
 3.78   0.0000    703.7951   1337.5586 -20.26     1396.423     1.801           25     1.523      1.651  0.002336476  20.1875        326
 3.50   0.0000    701.9553    951.0063 -42.48     2590.222     1.553           25     1.443      1.240  0.002336476  19.5167        327
 6.91   0.0000    700.5187    649.5245  45.63     127.6985     0.505           25     0.494      1.085  0.002334626  22.7845        328
 4.64   0.0000    698.0004    580.9234   8.03     643.4339     2.284           25     1.152      2.784  0.002335948  21.0287        329
 7.19   0.0000    695.4855    275.0860  -1.35     95.33623     0.773           25     0.500      1.119  0.002333833  23.1019        330
 3.71   0.0000    690.8048   1212.2382  44.32       530.85     1.548           25     1.379      1.319  0.002335683  21.2376        331
 4.17   0.0000    685.6292   1212.3170 -39.28     390.6745     1.258           25     1.058      1.272  0.002335683  21.5705        332
 4.30   0.0000    686.5704    129.2008  -8.88     328.4645     1.096           25     1.030      0.964  0.002334626  21.7588        333
 3.52   0.0000    684.5384    642.6415 -84.45     2104.529     1.616           25     1.447      1.074  0.002335419  19.7421        334
 8.03   0.0000    676.4891    199.5104  44.78      174.744     0.501           25     0.499      1.219  0.002333304  22.4440        335
 7.14   0.0000    674.7531   1163.0059   0.29     105.3902     0.685           25     0.431      1.351   0.00233674  22.9930        336
 5.82   0.0000    671.9800    229.6126 -11.33     181.3833     0.979           25     0.961      1.360  0.002335155  22.4035        337
 5.57   0.0000    668.3409   1219.9712 -70.90     269.2105     1.340           25     1.182      1.592  0.002336476  21.9748        338
 4.26   0.0000    665.8835   1178.6530  11.77     173.0822     0.950           25     0.745      1.147  0.002334097  22.4544        339
 7.50   0.0000    665.5051   1068.5013  44.94     91.29229     0.505           25     0.494      1.145  0.002333304  23.1489        340
 3.50   0.0000    647.4293   1462.9327 -70.59     50111.12     1.946           25     1.909      1.586  0.002335948  16.3002        341
 3.72   0.0000    653.6917    869.2630  74.16     643.1813     1.239           25     1.190      0.913   0.00233489  21.0292        342
 4.63   0.0000    644.7474    651.3193  51.41     415.9928     1.101           25     1.066      0.962  0.002334097  21.5023        343
 4.83   0.0000    640.3434    274.9605  -7.46     224.2375     1.171           25     0.974      1.148  0.002335683  22.1732        344
 3.50   0.0000    629.7487    804.5778   5.00     683.1421     1.254           25     1.197      0.989   0.00233674  20.9637        345
 7.77   0.0000    630.4081    853.7961 -18.78     74.36871     0.751           25     0.452      1.196  0.002335419  23.3715        346
 7.08   0.0000    628.4722    940.5145 -41.98     70.26537     0.502           25     0.497      1.004  0.002333833  23.4331        347
 3.50   0.0000    622.7011   1580.3177  49.75     1154.439     1.321           25     1.312      1.564  0.002333039  20.3941        348
 4.72   0.0000    617.3707   1150.1875 -13.40     488.4018     1.960           25     1.193      2.502  0.002336212  21.3281        349
 7.38   0.0000    618.4493     93.3292 -33.52     116.5144     0.988           25     0.686      1.807  0.002334362  22.8841        350
 7.64   0.0000    615.4998    117.4616 -74.20     109.0685     0.500           25     0.498      1.251  0.002334362  22.9558        351
 6.35   0.0000    610.7074    994.0096  -3.64     96.01436     0.749           25     0.679      1.373  0.002335155  23.0942        352
 6.91   0.0000    610.3042    961.6640  43.40     53.17173     0.565           25     0.339      1.078  0.002334626  23.7358        353
 3.66   0.0000    608.5586    943.8754  26.72     268.7453     1.010           25     0.931      1.169  0.002335155  21.9766        354
 6.65   0.0000    606.5120   1009.5204 -48.06     76.66447     0.501           25     0.498      1.009  0.002334097  23.3385        355
 7.64   0.0000   1550.4803    350.5271  45.95     130.4526     0.505           25     0.494      1.085  0.002334362  22.7614        356
 8.65   0.0000    598.4924    666.5140 -45.30     120.6645     0.506           25     0.493      1.597  0.002333568  22.8461        357
 6.73   0.0000    592.9932    881.0345  43.18     131.4499     0.800           25     0.788      1.441  0.002335948  22.7531        358
 5.36   0.0000   1592.4144   1383.2700 -15.98     356.7586     1.198           25     0.926      1.364  0.002337004  21.6691        359
 3.72   0.0000   1561.7380   1564.7104 -46.14     358.9612     0.922           25     0.752      1.172  0.002334626  21.6624        360
 5.59   0.0000   1584.8809   1068.1311  39.68      556.019     1.115           25     1.010      1.217  0.002334626  21.1873        361
 5.37   0.0000   1522.7218    377.1894  58.52     365.8869     1.423           25     0.793      2.255  0.002336476  21.6416        362
 3.50   0.0000   1535.1891   1427.3427 -50.78     650.7609     2.044           25     0.942      2.863   0.00233674  21.0164        363
 4.92   0.0000   1590.3356    565.3453  39.61     280.8254     0.970           25     0.851      0.938  0.002334626  21.9289        364
 3.71   0.0000    911.2531    999.6954 -23.48     602.8026     1.153           25     1.085      1.132  0.002334362  21.0996        365
 3.50   0.0000    911.7423    837.0168  17.34     966.8795     1.285           25     1.216      1.177  0.002335948  20.5866        366
 3.50   0.0000   1514.6006   1545.8663  72.70     689.3907     1.525           25     1.140      1.640  0.002337004  20.9538        367
 4.17   0.0000   1580.3745   1412.9325  34.91      401.293     1.257           25     1.000      1.583  0.002336212  21.5413        368
 5.86   0.0000   1527.5155    731.5428  47.38      382.594     1.125           25     0.849      1.244  0.002334097  21.5932        369
 3.59   0.0000   1569.3876     90.9186 -53.66     2280.425     1.441           25     1.368      1.066  0.002336212  19.6550        370
 3.76   0.0000   1583.9315   1107.3550  12.90     2085.809     1.405           25     1.363      0.879  0.002335155  19.7518        371
 4.29   0.0000   1545.0386    861.8808  54.15     1370.568     1.763           25     1.527      1.565   0.00233489  20.2077        372
 3.58   0.0000   1541.5220    652.9828 -62.99     3142.147     1.492           25     1.479      0.990  0.002336212  19.3069        373
 3.50   0.0000   1557.0219    485.9576 -55.36     46123.16     1.948           25     1.916      1.485  0.002336476  16.3902        374
 3.70   0.0000   1574.2651   1489.9102 -79.37     449.0246     0.947           25     0.750      1.265   0.00233489  21.4193        375
 3.69   0.0000   1565.5607     20.2036 -43.75     2725.843     1.446           25     1.426      0.919  0.002335683  19.4612        376
 6.08   0.0000   1562.0154    384.6225 -65.54     448.0093     1.333           25     0.865      2.371  0.002335155  21.4218        377
 3.50   0.0000   1562.5835    302.4617 -55.01     47509.52     1.935           25     1.904      1.596  0.002335419  16.3580        378
 6.29   0.0000   1570.4812   1336.9929   1.21     194.1293     0.777           25     0.499      1.179  0.002335683  22.3298        379
 3.90   0.0000   1564.7999    782.9744 -74.98     1684.708     2.107           25     1.524      1.579  0.002335155  19.9837        380
 4.00   0.0000   1551.1445   1512.1693  44.22     202.2648     0.747           25     0.568      1.247  0.002336476  22.2852        381
 3.50   0.0000   1540.7150    133.3156 -60.59     4340.164     1.541           25     1.512      0.885  0.002333304  18.9562        382
 4.36   0.0000   1549.9768   1220.6022   7.01     805.2042     1.213           25     1.118      1.065  0.002335683  20.7852        383
 3.58   0.0000   1560.2474    859.8215 -43.99      1645.12     1.348           25     1.294      1.131  0.002336212  20.0095        384
 3.50   0.0000   1551.5745    680.5765 -24.65     18195.15     4.830           25     4.082      8.525  0.002336212  17.4001        385
 4.96   0.0000   1537.6702    261.8769 -68.69     293.0371     0.886           25     0.689      1.183  0.002333833  21.8827        386
 7.88   0.0000   1553.2987   1231.3453 -42.70     305.2159     0.567           25     0.338      1.087  0.002333304  21.8385        387
 5.61   0.0000   1534.7047    918.0706 -10.97     396.9938     0.727           25     0.663      0.867  0.002334097  21.5530        388
 7.74   0.0000   1533.4845    974.0283 -62.62     449.6776     1.060           25     0.657      3.010  0.002335419  21.4177        389
 8.35   0.0000   1538.0134    504.4654 -88.96     237.5226     0.807           25     0.499      1.771   0.00233674  22.1107        390
 3.76   0.0000   1503.1592    721.7394 -78.01     1210.415     1.300           25     1.280      1.087  0.002335948  20.3427        391
 4.80   0.0000   1531.6218    414.0755  10.09     745.3754     1.560           25     1.341      1.796  0.002335948  20.8691        392
 5.02   0.0000   1521.5660     12.5948  37.45     367.4051     0.972           25     0.870      1.062  0.002335948  21.6371        393
 5.53   0.0000   1497.0098   1231.4792 -89.27     202.3561     0.778           25     0.500      1.458  0.002335948  22.2847        394
 5.09   0.0000   1518.1111     83.3417 -65.31     461.8506     1.147           25     1.036      1.457  0.002334362  21.3887        395
 5.67   0.0000   1519.2120   1099.3176 -88.46     611.5734     1.549           25     1.045      1.852  0.002336212  21.0839        396
 5.76   0.0000   1526.1066    877.3820 -21.44     289.0979     0.904           25     0.681      1.027  0.002335419  21.8974        397
 3.50   0.0000   1506.1300    267.6239 -53.50     30202.49     1.857           25     1.839      1.408  0.002336212  16.8499        398
 6.48   0.0000   1501.1704   1412.1464  47.35     188.8583     0.754           25     0.571      1.573  0.002336476  22.3597        399
 7.24   0.0000    916.6699   1111.6492 -44.19     106.1882     0.583           25     0.330      1.166  0.002334626  22.9848        400
 3.50   0.0000   1513.8696    390.9695 -28.30     9011.605     1.653           25     1.645      1.204  0.002335683  18.1630        401
 6.33   0.0000   1496.5107    671.5501  68.94      127.003     0.500           25     0.497      1.106  0.002334362  22.7905        402
 6.13   0.0000    913.7955   1117.9650  89.84     132.6019     0.909           25     0.759      1.415  0.002335948  22.7436        403
 4.01   0.0000   1513.6278    481.9716 -66.07     920.3942     1.166           25     1.121      1.007  0.002336212  20.6401        404
 3.62   0.0000   1497.6539    842.8762 -23.08     684.4698     1.083           25     0.990      1.218  0.002334626  20.9616        405
 6.13   0.0000   1503.3531   1310.4663  16.49     261.2625     0.938           25     0.817      1.577  0.002335155  22.0073        406
 5.43   0.0000    937.3623    514.6446  59.14     716.1566     1.931           25     1.402      3.302  0.002336476  20.9125        407
 5.51   0.0000   1476.0063    197.0533   0.59     367.9463     1.018           25     0.729      1.152  0.002337797  21.6355        408
 7.13   0.0000   1495.4739    928.5216 -44.56     205.0008     0.506           25     0.492      1.107  0.002334626  22.2706        409
 6.36   0.0000   1502.9595   1095.0165 -41.47     350.5714     0.793           25     0.772      1.442  0.002336476  21.6881        410
 3.70   0.0000    946.8018    443.5114 -10.81      436.168     1.260           25     1.071      0.916  0.002335155  21.4509        411
 7.68   0.0000    918.6908   1343.3204  44.39     112.0066     0.561           25     0.341      1.612  0.002334362  22.9269        412
 3.50   0.0000    931.4678   1116.4857   3.76     177.2363     0.907           25     0.890      1.047  0.002333833  22.4286        413
 3.74   0.0000   1481.3601    573.6433 -44.00     901.5891     2.130           25     1.338      2.698  0.002336476  20.6625        414
 6.65   0.0000    925.0899    664.8290  47.37     173.1633     0.825           25     0.664      1.276   0.00233489  22.4539        415
 4.49   0.0000   1487.1832     76.2658  28.20     663.9252     1.246           25     1.125      1.077  0.002336476  20.9947        416
 6.73   0.0000    952.4832   1502.9939   0.94     105.4101     0.778           25     0.500      1.379  0.002335419  22.9928        417
 5.33   0.0000   1474.0706    996.7557 -15.34     981.9581     2.365           25     1.101      4.577   0.00233489  20.5698        418
 6.90   0.0000    924.3528    309.3077 -47.02     75.52119     0.574           25     0.334      1.371  0.002333833  23.3548        419
 9.05   0.0000   1477.4849   1022.4782  45.65     209.8996     0.505           25     0.494      1.975  0.002333833  22.2450        420
 3.50   0.0000   1431.1808    339.1158  21.39     731.9619     1.771           25     1.214      1.865  0.002335948  20.8888        421
 4.25   0.0000    964.0634    414.7780 -20.00     516.7368     1.154           25     1.125      1.057  0.002336476  21.2668        422
 8.41   0.0000    949.3171    825.3550 -43.42     107.4676     0.579           25     0.332      1.300   0.00233489  22.9718        423
 7.34   0.0000    958.5072    891.5318 -57.35     118.4238     0.501           25     0.498      1.018  0.002334097  22.8664        424
 3.50   0.0000    927.3716   1321.0503 -44.22     1155.842     1.369           25     1.315      1.260  0.002336476  20.3928        425
 8.90   0.0000   1410.6099    365.6008 -68.79     282.1823     1.072           25     0.321      3.914   0.00233489  21.9237        426
 4.19   0.0000    949.7249    652.6889  88.42     908.2175     1.952           25     1.462      1.933  0.002333568  20.6545        427
 3.50   0.0000    938.2878   1065.6573  74.01     2049.562     1.431           25     1.383      1.103  0.002334362  19.7708        428
 5.44   0.0000   1456.9949    610.2800  87.17     221.0166     0.739           25     0.672      1.463  0.002335419  22.1889        429
 5.84   0.0000    940.4291    724.3670  44.87      225.086     1.027           25     0.884      1.588  0.002335948  22.1691        430
 6.45   0.0000    976.3963   1279.2194  18.26     157.1462     0.737           25     0.454      1.462  0.002335419  22.5592        431
 7.57   0.0000    954.3213   1027.6919  45.71     141.8983     0.561           25     0.341      1.024  0.002334097  22.6701        432
 6.59   0.0000   1440.8312   1081.2878  45.57     123.5579     4.028           25     1.419      9.053  0.002335155  22.8203        433
 5.25   0.0000    981.3622   1485.5789 -43.34     250.6896     0.964           25     0.854      1.074  0.002336212  22.0522        434
 3.50   0.0000   1452.4899    389.8003 -66.94     376.0395     0.945           25     0.927      1.006   0.00233489  21.6119        435
 5.57   0.0000   1027.1073    462.1880 -47.15     164.5503     0.806           25     0.667      0.951   0.00233489  22.5093        436
 6.77   0.0000    972.9857    546.9538 -17.77     108.7983     0.790           25     0.782      1.211  0.002335948  22.9584        437
 3.50   0.0000   1434.2510    223.0160 -46.78     4355.471     1.518           25     1.487      1.122  0.002336476  18.9524        438
 4.36   0.0000    979.8970    796.3403 -56.67     987.0954     1.728           25     1.564      1.466  0.002333833  20.5641        439
 4.47   0.0018   1445.3281    729.7343   3.53     1.375989     1.035           25     0.950      3.913  0.002334097  27.7035        440
 3.84   0.0000   1405.3000    328.1622 -84.26     987.6459     1.220           25     1.132      0.879  0.002333304  20.5635        441
 7.94   0.0000    983.5096    952.4819 -45.47     145.3934     0.507           25     0.493      1.820  0.002334362  22.6436        442
 5.40   0.0000   1448.3313     86.1749 -68.16     247.9286     0.891           25     0.684      1.001  0.002336212  22.0642        443
 4.51   0.0000   1437.7814   1269.7209  37.09     825.2852     1.171           25     1.133      1.116  0.002336476  20.7585        444
 3.84   0.0000   1119.2284    328.0840  57.85     2377.893     2.792           25     1.753      3.933  0.002335419  19.6095        445
 3.55   0.0000   1435.4414   1345.9382   2.19     526.8648     1.048           25     0.935      1.273  0.002335419  21.2458        446
 5.35   0.0000   1437.6959    645.8911   7.62     405.2301     1.135           25     0.877      1.388  0.002333304  21.5307        447
 3.50   0.0000   1438.7836    617.5071  -4.26     3338.498     1.460           25     1.417      0.917  0.002335683  19.2411        448
 5.33   0.0000   1128.8336    503.1409  44.77     292.1663     0.809           25     0.680      1.298  0.002335948  21.8859        449
 4.33   0.0000   1272.8525    696.4070 -22.77     462.7918     1.324           25     1.119      1.098  0.002337533  21.3865        450
 5.64   0.0000   1027.2592    350.3917 -20.86     213.2113     0.964           25     0.594      1.384  0.002337269  22.2280        451
 7.02   0.0000   1124.4945    274.5286  49.23     177.9499     0.502           25     0.497      1.030  0.002334362  22.4243        452
 5.01   0.0000    977.1620    451.1199 -76.12     536.3499     1.347           25     1.151      1.225  0.002335155  21.2264        453
 5.83   0.0000   1126.8915    836.1245  46.41     203.1409     0.841           25     0.670      1.047  0.002334097  22.2805        454
 3.50   0.0000   1392.3209    112.7096 -60.32     61270.42     1.989           25     1.948      1.591  0.002334097  16.0819        455
 5.65   0.0000   1402.7693   1361.5898  13.15      405.787     0.956           25     0.941      1.038  0.002336476  21.5293        456
 8.22 104.8889   1422.6824   1595.3485  43.67 2.292173e-05     0.577           25     0.333      3.461  0.002213845  39.6494        457
 8.51   0.0000   1128.5022    872.4724  70.37     201.8164     0.500           25     0.499      2.052  0.002334097  22.2876        458
 7.47   0.0000   1419.3876    427.8067 -18.74     212.2999     0.761           25     0.445      1.183  0.002334097  22.2326        459
 3.50   0.0000   1137.4629    146.3137 -65.78     28956.79     1.872           25     1.855      1.403  0.002334097  16.8956        460
 3.64   0.0000   1414.4452   1385.1593 -77.94     2230.145     1.389           25     1.358      1.303  0.002336476  19.6792        461
 3.50   0.0000   1407.1079    306.5768 -57.65     3198.051     1.473           25     1.412      1.053   0.00233489  19.2878        462
 3.85   0.0000   1410.1370    348.2293  47.50     1084.617     1.704           25     1.337      1.546  0.002335683  20.4618        463
 3.50   0.0000   1387.8843   1427.1151 -42.27     8964.034     1.627           25     1.610      1.361  0.002333568  18.1687        464
 3.50   0.0000   1318.9795    658.3513 -51.83     27268.41     1.867           25     1.837      1.450  0.002336212  16.9608        465
 5.96   0.0000   1305.8440    572.6506 -19.87     265.0842     0.923           25     0.675      1.079  0.002336212  21.9915        466
 3.50   0.0000   1371.5431   1017.4425 -35.96     9819.104     1.844           25     1.698      1.169  0.002335155  18.0698        467
 4.14   0.0000   1387.9163    805.0239 -17.20     799.3153     1.106           25     1.094      1.000  0.002335683  20.7932        468
 5.75   0.0000   1387.8052   1583.8373 -41.79     281.0014     0.811           25     0.665      1.254  0.002335683  21.9282        469
 4.37   0.0000   1399.7484   1029.9731  35.66     1317.139     1.571           25     1.396      1.339  0.002336476  20.2509        470
 3.50   0.0000   1389.4093    711.6742  61.01     3299.283     1.534           25     1.468      1.104   0.00233674  19.2540        471
 3.57   0.0000   1391.3361   1037.2961 -38.86     2467.132     1.442           25     1.415      0.981  0.002334626  19.5695        472
 3.50   0.0000   1277.2167   1329.9503 -88.20     4871.438     1.568           25     1.535      1.239  0.002336212  18.8309        473
 6.47   0.0000   1392.0364   1532.6101   0.68     442.9285     1.020           25     0.785      1.193  0.002335948  21.4342        474
 5.91   0.0000   1384.6724   1273.8531  78.25     571.8813     1.016           25     0.747      3.082  0.002334626  21.1567        475
 8.83   0.0000   1384.5093   1383.5004  41.64     239.4961     0.500           25     0.500      2.909  0.002332774  22.1018        476
 6.48   0.0000   1305.5121    842.8745  13.71     380.1177     1.074           25     0.970      1.809  0.002333833  21.6002        477
 7.37   0.0000   1369.6818    705.2957  46.33     135.3748     0.554           25     0.344      0.906  0.002333833  22.7212        478
 4.88   0.0000   1345.9719    192.7731   0.40     280.4095     0.903           25     0.749      1.142  0.002336212  21.9305        479
 4.11   0.0000   1378.3208    317.2925 -13.39     559.1581     1.088           25     0.960      1.043  0.002334362  21.1812        480
 5.40   0.0000   1361.8470    389.3581 -14.68      311.001     1.054           25     0.727      1.408  0.002336212  21.8181        481
 4.54   0.0000   1367.3254    147.8780  53.16     418.9203     0.998           25     0.825      0.966   0.00233489  21.4947        482
 3.50   0.0000   1318.3370    262.3694 -37.88     1111.413     1.280           25     1.184      0.940  0.002335948  20.4353        483
 5.45   0.0000   1351.3975    150.3783  78.48     726.4895     1.935           25     1.440      3.051  0.002335419  20.8969        484
 3.50   0.0000   1329.4015    385.2875  20.28      777.572     1.217           25     1.172      1.003  0.002335419  20.8231        485
 3.71   0.0000   1345.2412    603.6646 -67.92     605.9557     1.354           25     1.065      1.315  0.002335683  21.0939        486
 7.13   0.0000   1351.5321    473.5340 -45.99     219.0766     0.501           25     0.497      1.131  0.002333833  22.1985        487
 3.61   0.0000   1331.7163    105.7077 -17.12     1260.899     1.313           25     1.240      0.980  0.002334097  20.2983        488
 3.50   0.0000   1306.4722    668.0397 -42.74      3150.74     1.561           25     1.506      1.095  0.002335683  19.3040        489
 3.50   0.0000   1328.8700    654.2535   3.86     3511.419     1.667           25     1.624      1.038  0.002334626  19.1863        490
 4.78   0.0000   1290.5552    544.2146 -19.52     402.4224     1.009           25     0.925      0.902  0.002335948  21.5383        491
 3.50   0.0000   1297.3068    723.3258 -20.11     121942.8     2.569           25     2.084      1.776  0.002334097  15.3346        492
 6.65   0.0000   1324.2008    632.0477  12.67     296.8176     1.218           25     0.651      2.107  0.002337269  21.8688        493
 3.90   0.0000   1303.7844    891.3276 -50.07     1014.493     1.282           25     1.254      0.828  0.002337269  20.5344        494
 7.32   0.0000   1302.4843     40.5543  59.18     155.7511     0.501           25     0.496      1.130   0.00233489  22.5689        495
 5.35   0.0000   1282.1034   1567.6960 -75.79     278.6194     0.725           25     0.664      1.118  0.002333039  21.9375        496
 4.39   0.0000   1298.2344     52.2682 -40.63      612.396     1.100           25     1.066      0.896  0.002335948  21.0824        497
 3.50   0.0000   1291.6096    411.0975 -20.13     1407.773     1.350           25     1.232      0.929  0.002334626  20.1787        498
 4.58   0.0000   1261.1510    853.7941 -51.72     711.4991     1.163           25     1.074      1.224  0.002337269  20.9196        499
 3.50   0.0000   1290.3988    760.5972 -26.64     7536.195     2.181           25     1.654      1.395  0.002336212  18.3571        500
 3.50   0.0000   1264.4102    806.2888  -2.02     3786.048     1.508           25     1.497      1.053  0.002335419  19.1045        501
 3.50   0.0000   1271.8014    608.2728 -57.85     11013.09     4.463           25     2.548      6.294   0.00233674  17.9452        502
 3.50   0.0000   1209.7850   1277.4983  81.55     9837.294     6.002           25     3.576      9.227   0.00233489  18.0678        503
 7.27   0.0000   1155.5150    349.9638  -1.96     164.3442     0.782           25     0.499      1.233  0.002335419  22.5106        504
 4.04   0.0000   1276.7361    341.9587  89.47     330.7101     0.883           25     0.745      1.192  0.002335683  21.7514        505
 3.66   0.0000   1206.7316    837.2612 -14.96     2098.351     1.415           25     1.399      0.992  0.002334626  19.7453        506
 3.88   0.0000   1258.4160    430.7781   0.30     1857.969     2.067           25     1.998      2.801  0.002335155  19.8774        507
 3.50   0.0000   1261.2987    214.4610  -7.60      439.225     0.965           25     0.934      1.089  0.002334362  21.4433        508
 3.50   0.0000   1217.9849   1193.4705  59.35     11142.66     1.914           25     1.829      1.368  0.002337269  17.9325        509
 3.74   0.0000   1236.6903     46.4942  12.62     624.8787     1.173           25     1.092      1.012  0.002333568  21.0605        510
 5.63   0.0000   1228.8633    597.4689 -32.56     882.7932     1.748           25     1.636      1.685   0.00233489  20.6854        511
 4.39   0.0000   1211.9121   1427.8794  69.21     1772.229     2.582           25     2.167      5.057  0.002333833  19.9287        512
 3.50   0.0000   1233.3027    303.1225 -36.25     3188.597     1.472           25     1.459      1.068  0.002333833  19.2910        513
 7.11   0.0000   1172.4825    206.5125 -43.56      234.606     0.501           25     0.498      0.999  0.002334097  22.1242        514
 3.56   0.0000   1236.1771   1552.1875 -48.84     2021.926     1.441           25     1.352      1.334  0.002335419  19.7856        515
 5.99   0.0000   1242.9928    612.1877   2.24     280.7347     0.894           25     0.744      0.769  0.002334097  21.9293        516
 4.51   0.0000   1193.9963    122.4217 -71.91     1811.314     2.227           25     1.840      2.320  0.002335419  19.9050        517
 5.83   0.0000   1237.0295    855.9278  73.69     489.3069     1.172           25     1.153      1.704  0.002335683  21.3260        518
 4.43   0.0000   1227.8544   1152.1260 -44.07      563.179     1.137           25     1.075      1.134  0.002334626  21.1734        519
 3.50   0.0000   1213.5891    511.3575 -21.22     16928.67     1.756           25     1.722      1.208  0.002335948  17.4784        520
 7.34   0.0000   1222.3035    828.6625  43.30     95.27702     0.566           25     0.339      1.095  0.002334362  23.1025        521
 5.13   0.0000   1171.7573    231.0094 -85.08     243.6589     0.909           25     0.746      0.800  0.002336212  22.0830        522
 5.24   0.0000   1220.3372   1429.9242  73.25     430.7422     1.274           25     1.069      1.874  0.002334362  21.4645        523
 4.81   0.0000   1203.3542   1215.9109  81.93     286.5032     0.973           25     0.845      1.147  0.002334362  21.9072        524
 6.62   0.0000   1195.7742   1332.0226   0.96     115.2164     0.691           25     0.418      1.004  0.002336212  22.8962        525
 3.50   0.0000   1200.7493    337.4133  66.45     2036.366     1.404           25     1.400      0.895   0.00233674  19.7779        526
 5.33   0.0000   1209.7607    827.6060  29.35     249.3282     1.047           25     0.807      1.305  0.002335948  22.0581        527
 4.03   0.0000   1179.9944    547.8141   1.30     817.8995     1.213           25     1.157      1.065  0.002334362  20.7682        528
 4.63   0.0000   1209.5675   1414.1831  15.76     365.1879     1.198           25     0.943      1.420  0.002336212  21.6437        529
 8.67   0.0000   1176.3215     16.3410 -44.14     268.6306     0.575           25     0.334      2.256   0.00233489  21.9771        530
 3.50   0.0000   1200.0382   1440.7582  67.54     1351.852     1.786           25     1.594      1.671  0.002337004  20.2227        531
 3.50   0.0000   1180.7412    174.5659 -16.48     664.8818     1.129           25     1.064      0.957  0.002336212  20.9931        532
 4.94   0.0000   1184.0728    312.2089  -5.46      322.407     0.882           25     0.741      1.111   0.00233674  21.7790        533
 8.47   0.0000   1179.4666   1402.5000 -42.39     192.9834     0.506           25     0.493      1.397   0.00233489  22.3362        534
 3.79   0.0000   1150.1085     97.7642 -19.21     1600.032     1.397           25     1.352      1.142  0.002334362  20.0397        535
 3.88   0.0000   1129.1823    217.8823  -8.95     743.9186     1.511           25     1.231      1.177  0.002335948  20.8712        536
 3.50   0.0000   1164.2880   1298.2457 -66.57     41902.41     1.922           25     1.880      1.558  0.002334362  16.4944        537
 4.74   1.2610   1176.0353   1597.4540  -2.43  0.001743232     0.991           25     0.774      4.452   0.00202421  34.9466        538
 3.96   0.0000   1152.6783   1351.5414  56.22     1092.031     1.585           25     1.541      1.327   0.00233489  20.4544        539
 4.23   0.0000   1160.7585    886.2136  15.39     721.3088     1.249           25     1.172      1.065  0.002335948  20.9047        540
 4.56   0.9707   1166.0389   1598.8734  88.25  0.002085711     1.197           25     0.942      4.435  0.001864194  34.7519        541
 3.50   0.0000   1156.7683    234.6826 -32.68     6413.486     1.622           25     1.599      1.100  0.002335419  18.5323        542
 6.81   0.0000   1157.1354    184.1379 -46.27     237.7173     0.849           25     0.677      1.365  0.002334626  22.1098        543
 5.22   0.0000   1155.0981    565.7803 -81.63     316.3574     1.247           25     0.919      1.491  0.002334362  21.7996        544
 5.48   0.0000   1146.8527    110.7027 -22.17     208.3876     0.883           25     0.684      0.893  0.002333304  22.2528        545
 3.50   0.0000   1128.9263    181.7753 -55.46     17705.46     1.777           25     1.732      1.306  0.002335948  17.4297        546
 6.42   0.0000   1073.6285    350.7908  28.79     304.0307     1.109           25     0.897      1.775  0.002335948  21.8427        547
 4.05   0.0000   1128.1890    545.7462 -40.72      727.896     1.251           25     1.189      1.063  0.002337004  20.8948        548
 6.69   0.0000   1129.4607   1143.4618 -44.58     161.1109     0.501           25     0.496      1.183  0.002335155  22.5322        549
 4.43   0.0000   1130.0223    357.5392 -42.79      503.497     1.030           25     1.003      0.945  0.002336476  21.2950        550
 4.23   0.0000   1105.8722   1265.8270 -46.31     176.9087     0.799           25     0.674      1.211  0.002335683  22.4306        551
 8.14   0.0000   1028.0111    178.7182  87.98     180.4794     0.748           25     0.680      2.276  0.002335948  22.4089        552
 4.82   0.0710   1026.8101    605.8358 -44.10   0.03572341     0.871           25     0.841      2.567  0.002335948  31.6676        553
 6.77   0.0000   1115.3961   1168.6317 -30.28     258.5786     1.105           25     0.740      1.755  0.002336212  22.0185        554
 6.74   0.0000   1107.9915   1122.0051  89.83     179.7433     0.623           25     0.611      1.320  0.002335155  22.4134        555
 5.43   0.0000   1110.1667    477.8314  30.36     1786.979     3.002           25     1.979      6.728  0.002336476  19.9197        556
 3.50   0.0000   1106.4496    426.3223 -10.02     7869.114     1.654           25     1.641      1.058  0.002334097  18.3102        557
 3.50   0.0000   1064.9115   1595.7524 -49.92     102.3342     1.137           25     1.109      3.318  0.002181545  23.0249        558
 7.47   0.0000   1088.4707    781.3342  49.66     12199.87     1.292           25     0.498      3.620  0.002334097  17.8341        559
 5.67   0.0000   1062.9246    290.3387 -15.23     273.5443     1.014           25     0.742      1.351   0.00233489  21.9574        560
 4.62   0.0000   1065.8292    567.3412 -61.86     340.0916     1.297           25     1.030      0.939  0.002336476  21.7210        561
 3.50   0.0000   1094.6127   1525.2114 -18.99     1074.155     1.304           25     1.225      1.255  0.002335155  20.4723        562
 5.00   0.0000   1089.9391    466.5366 -58.07     860.3595     2.613           25     1.233      3.550   0.00233489  20.7133        563
 6.50   0.0000   1091.8363    427.4894  24.08     474.0284     1.826           25     1.293      2.830   0.00233489  21.3605        564
 3.50   0.0000   1093.6808   1134.7931 -22.24     361.4706     1.078           25     0.992      1.142  0.002335683  21.6548        565
 3.50   0.0000   1079.0300    510.4799 -37.68     29895.32     1.880           25     1.863      1.430  0.002335419  16.8610        566
 3.50   0.0000   1039.2594    631.4073 -47.61     35323.24     1.893           25     1.873      1.438  0.002337269  16.6798        567
 3.50   0.0000   1080.8483   1146.6909 -24.35     10950.14     1.677           25     1.666      1.203  0.002334097  17.9515        568
 5.20   0.0000   1087.3164    395.1666  57.95     331.4019     1.234           25     0.955      1.483  0.002335683  21.7491        569
 3.95   0.0000   1078.2657    328.4388 -25.72      640.636     1.219           25     1.190      0.987  0.002335683  21.0335        570
 4.20   0.0000   1085.4874   1451.3422  70.17     391.3192     1.400           25     1.115      1.715  0.002334626  21.5687        571
 7.72   0.0000   1066.6331   1472.0443  47.06     483.4891     1.378           25     0.913      4.798   0.00233674  21.3390        572
 5.67   0.0000   1078.0466    920.9127 -72.75     189.6582     0.780           25     0.776      1.358  0.002334626  22.3551        573
 3.50   0.0000   1018.5951   1153.3916 -37.83     212.9575     0.969           25     0.861      0.916  0.002335155  22.2293        574
 5.17   0.0000    992.0784    498.0102 -32.96     193.4534     0.783           25     0.775      1.246  0.002336212  22.3336        575
 6.16   0.0000   1077.0077    466.9885   0.40     142.3435     0.620           25     0.610      1.077  0.002334626  22.6667        576
 4.21   0.0000   1071.2057   1217.5162 -68.65     1871.608     2.239           25     1.930      2.509  0.002335419  19.8695        577
 4.76   0.0000   1064.2319   1561.6675 -68.85     1121.662     2.501           25     1.627      5.218  0.002335948  20.4253        578
 3.50   0.0000   1037.6990    523.7823  88.97     9297.134     1.696           25     1.681      1.180   0.00233489  18.1291        579
 6.06   0.0000   1051.8007    398.9987 -88.71     235.5123     0.927           25     0.749      1.472  0.002336212  22.1200        580
 7.31   0.0000   1028.6842    945.6791 -44.74     120.8072     0.564           25     0.340      1.309  0.002334362  22.8448        581
 5.45   0.0000   1042.1552    808.1166 -41.56     185.3163     0.810           25     0.670      1.312   0.00233489  22.3802        582
 8.33   0.0000   1047.4857    206.5130  44.74     156.1293     0.502           25     0.498      1.136  0.002333833  22.5663        583
 4.35   0.0000   1051.3973    235.9645  16.35     203.4327     1.202           25     0.946      1.428  0.002335948  22.2789        584
 7.86   0.0000   1032.5078    491.5200 -50.77      136.663     0.501           25     0.499      1.060  0.002334362  22.7109        585
 7.64   0.0000   1046.7662   1157.0314   1.40     157.3052     0.691           25     0.423      1.400  0.002336476  22.5581        586
 6.06   0.0000   1036.1702    240.3378 -20.06     204.3568     0.898           25     0.679      1.150  0.002335948  22.2740        587
 6.17   0.0000   1039.5272    465.5916  20.18     284.2529     1.125           25     1.003      1.523  0.002336476  21.9157        588
 5.13   0.0000   1028.5894   1033.7855  19.51     123.1792     0.735           25     0.452      1.169  0.002335155  22.8237        589
 5.26   0.0000   1041.7097   1094.2051  37.41     201.6216     1.048           25     0.688      1.387  0.002334626  22.2887        590
 3.93   0.0000   1029.2343    300.9294  68.86     1807.147     2.735           25     1.854      3.830  0.002335683  19.9075        591
 5.12   0.0000   1016.3457    199.5304  20.23     288.8056     0.959           25     0.826      1.210  0.002334626  21.8985        592
 5.04   0.0000   1020.2978   1267.2831  48.45     339.0042     2.139           25     0.808      3.251  0.002333304  21.7245        593
 4.74   0.0000    985.6621    452.4799  64.48     1205.183     2.100           25     1.781      1.911  0.002334097  20.3474        594
 3.50   0.0000   1024.8750   1378.5491 -86.83     19784.07     1.855           25     1.738      1.405  0.002334097  17.3092        595
 3.50   0.0000   1008.8733    812.1113  37.36     18152.11     1.770           25     1.759      1.357  0.002333833  17.4027        596
 4.25   0.0000   1013.5488    451.3266   9.02     395.3753     1.153           25     0.984      1.061  0.002334097  21.5575        597
 3.50   0.0000   1010.2905    343.0790 -29.81     2740.498     1.491           25     1.453      1.090  0.002334097  19.4554        598
 5.33   0.0000    991.3466    344.4591 -20.15     241.6657     0.933           25     0.811      1.064  0.002335155  22.0920        599
 3.50   0.0000    983.9279    556.8673 -87.44     26667.81     1.840           25     1.832      1.379  0.002333833  16.9850        600
 5.77   0.0000   1010.0002    266.0417  37.06     440.1971     1.152           25     1.136      1.412  0.002336212  21.4409        601
 3.50   0.0000   1000.7599    541.0183  23.68      2904.77     1.539           25     1.501      1.166  0.002336476  19.3922        602
 3.50   0.0000   1003.1661   1236.6719  23.68      143.633     0.918           25     0.672      1.242  0.002335683  22.6569        603
 3.50   0.0000   1000.5397   1554.0548  -5.84     1274.465     1.339           25     1.272      1.317   0.00233489  20.2867        604
 3.50   0.0000    998.8932   1272.4302 -42.66     982.7692     1.338           25     1.237      1.270  0.002334626  20.5689        605
