#   1 KRON_RADIUS            Kron apertures in units of A or B                         
#   2 MAGERR_APER            RMS error vector for fixed aperture mag.                   [mag]
#   3 Y_IMAGE                Object position along y                                    [pixel]
#   4 X_IMAGE                Object position along x                                    [pixel]
#   5 THETA_IMAGE            Position angle (CCW/x)                                     [deg]
#   6 FLUX_APER              Flux vector within fixed circular aperture(s)              [count]
#   7 A_IMAGE                Profile RMS along major axis                               [pixel]
#   8 THRESHOLD              Detection threshold above background                       [count]
#   9 B_IMAGE                Profile RMS along minor axis                               [pixel]
#  10 FLUX_RADIUS            Fraction-of-light radii                                    [pixel]
#  11 FLUXERR_APER           RMS error vector for aperture flux(es)                     [count]
#  12 MAG_APER               Fixed aperture magnitude vector                            [mag]
#  13 NUMBER                 Running object number                                     
 4.27   0.0000     53.2285     63.7742  -2.74     27964.08     4.404           15     4.007      7.696  0.006056265  16.9335          1
 4.33   0.0000     16.3044    985.0226 -87.82     4448.972     3.688           15     1.825      5.150   0.00605421  18.9293          2
 4.07   0.0000     18.0125     91.3880 -63.52     4216.073     1.651           15     1.570      0.951   0.00605421  18.9877          3
 3.50   0.0000     14.6138   1445.7917 -52.45     11056.44     1.870           15     1.806      1.066  0.006052153  17.9410          4
 7.08   0.0000     17.0088    384.7113 -85.01     507.7047     0.733           15     0.676      1.150   0.00605558  21.2860          5
 5.18   0.0000     24.6807    367.1530 -22.26     803.2452     1.213           15     1.050      0.874  0.006052839  20.7879          6
 3.50   0.0000     59.7943   1078.5426  78.54     39902.62     2.290           15     2.178      1.483  0.006059689  16.5475          7
 3.50   0.0000     80.1343    537.6766 -39.94     35687.62     2.198           15     2.143      1.480  0.006050096  16.6687          8
 4.41   0.0000     75.0783    128.1779 -45.31     1749.683     1.483           15     1.375      1.072  0.006056265  19.9426          9
 3.50   0.0000    121.8205    789.2079 -57.78     53124.23     2.257           15     2.200      1.472   0.00605421  16.2368         10
 4.36   0.0000     96.6213     56.2591 -27.79     2567.758     1.550           15     1.496      0.956  0.006057635  19.5261         11
 8.72   0.0000     82.3262    421.3430 -44.29      316.437     0.578           15     0.333      1.525  0.006052839  21.7993         12
 8.98   0.0000     90.5028    376.9697   0.25     666.7249     0.809           15     0.500      3.489  0.006051468  20.9901         13
 7.62   0.0000     97.9985    452.9957 -44.10     470.4178     0.897           15     0.535      2.282   0.00605421  21.3688         14
 3.50   0.0000    162.2912   1468.3754 -61.62     32927.48     2.138           15     2.082      1.380   0.00605421  16.7561         15
 3.61   0.0000    170.2583    877.3432 -57.04     9927.313     1.850           15     1.787      1.125  0.006052839  18.0579         16
 5.67   0.0000    164.8608   1445.7177 -66.82     682.5112     1.143           15     1.020      0.905  0.006051468  20.9647         17
 5.49   0.0000    166.7144    104.4765 -15.27     586.6597     0.997           15     0.941      0.953  0.006050096  21.1290         18
 5.91   0.0000    192.5169   1350.5178 -61.72     1036.213     1.214           15     1.196      1.107  0.006050782  20.5114         19
 4.19   0.0000    206.7009    549.1866 -29.35      1810.05     1.425           15     1.358      0.800  0.006052839  19.9058         20
 5.62   0.0000    210.5408    827.6758  -5.63      3040.43     2.735           15     1.779      6.439  0.006053524  19.3427         21
 4.37   0.0000    212.1142   1306.1636 -54.87     1704.765     1.451           15     1.360      0.825  0.006054895  19.9708         22
 6.08   0.0000    229.6508    562.2986 -10.00      2768.83     2.622           15     2.362      7.508  0.006047352  19.4443         23
 7.67   0.0000    210.7098    684.9471   5.90     426.8884     0.739           15     0.683      1.509  0.006052153  21.4742         24
 4.03   0.0000    223.9435   1226.1060 -71.74     2077.342     1.479           15     1.414      0.633  0.006052153  19.7562         25
 3.50   0.0000    259.7716    997.4949 -49.16      86268.3     2.375           15     2.315      1.569  0.006052839  15.7104         26
 5.81   0.0000    222.4698    774.9534  -2.23     667.8486     1.090           15     0.945      0.953   0.00605421  20.9883         27
 3.50   0.0000    265.9278     67.6582 -37.18     65206.04     2.300           15     2.264      1.534  0.006052839  16.0143         28
 6.71   0.0000    243.7849    112.9405 -80.90     1116.154     1.516           15     1.209      2.454   0.00605558  20.4307         29
 5.13   0.0000    255.2897    613.0684 -43.66     2889.065     2.125           15     1.773      2.326  0.006051468  19.3981         30
 7.97   0.0000    239.1856    838.8074 -44.52     361.1118     0.763           15     0.567      1.547  0.006052153  21.6559         31
 8.32   0.0000    250.4927    107.4911 -45.11     391.2702     0.503           15     0.497      1.023   0.00604941  21.5688         32
 3.50   0.0000    287.5205   1486.5184 -58.45     19669.17     2.006           15     1.960      1.183  0.006052153  17.3155         33
 3.71   0.0000    281.8881   1522.3986 -84.82     4815.296     1.660           15     1.609      0.940  0.006054895  18.8434         34
 8.88   0.0000    270.5084   1273.4916 -45.00     332.0032     0.505           15     0.495      1.128  0.006048725  21.7471         35
 3.50   0.0000    303.1597    201.8013 -20.33     15669.89     1.942           15     1.887      1.242   0.00605695  17.5623         36
 6.79   0.0000    293.4639   1475.6927 -55.59     646.6346     0.984           15     0.950      1.009  0.006053524  21.0234         37
 5.55   0.0000    302.2210    563.7106  19.09     844.8826     1.074           15     1.044      1.088   0.00605421  20.7330         38
 3.50   0.0000    322.0659    697.3301 -38.79     11341.73     1.840           15     1.788      1.124  0.006052153  17.9133         39
 5.47   0.0000    327.3771    595.5006  -6.78     1475.989     1.606           15     1.439      1.289  0.006051468  20.1273         40
 9.85   0.0000    321.5020    641.5054 -45.19     666.1675     0.502           15     0.498      3.012  0.006048725  20.9910         41
 7.23   0.0000    329.2394   1545.9945   0.27     346.8691     0.683           15     0.427      1.002  0.006056265  21.6996         42
 6.34   0.0000    332.1343     93.3228 -20.74     425.9005     0.903           15     0.689      1.123  0.006050096  21.4767         43
 4.96   0.0000    350.0178     54.7950 -29.90     961.0113     1.208           15     1.168      0.986   0.00605421  20.5932         44
 3.71   0.0000    368.1374    761.1620 -36.50     11394.62     1.861           15     1.810      1.195   0.00605558  17.9082         45
 4.32   0.0000    361.1077   1500.4562 -89.12     1923.318     1.472           15     1.387      0.987  0.006052153  19.8399         46
 5.59   0.0000    360.2700   1033.9875 -89.56     455.3342     0.911           15     0.754      1.084  0.006059689  21.4042         47
 3.50   0.0000    395.2099    231.5074 -46.89     39785.49     2.198           15     2.142      1.463   0.00605421  16.5507         48
 6.91   0.0001    380.7730      1.4245 -85.27     61.34153     1.270           15     0.485      3.110  0.004606373  23.5806         49
 3.52   0.0000    398.1901    354.6606 -50.94     8992.457     1.806           15     1.749      1.118  0.006059005  18.1653         50
 3.51   0.0000    397.0133   1461.2390 -54.40     7937.318     1.754           15     1.693      1.064  0.006057635  18.3008         51
 4.33   0.0000    393.6656   1088.6307 -83.95     1861.167     1.339           15     1.309      0.919   0.00605558  19.8755         52
 7.19   0.0000    412.0781      1.4993 -89.95     139.6883     1.912           15     0.500      4.135  0.004624353  22.6871         53
 3.50   0.0000    437.9597    252.1309 -26.57     17247.89     1.982           15     1.933      1.281   0.00605558  17.4582         54
 3.50   0.0000    461.1037    807.6888 -48.66     98701.09     2.396           15     2.330      1.567  0.006048725  15.5642         55
 6.51   0.0000    420.8617    159.1614  44.08     693.6342     1.258           15     1.071      1.868   0.00605558  20.9472         56
 4.59   0.0000    432.8108   1422.1188  88.02     1218.957     1.295           15     1.230      0.683   0.00605695  20.3350         57
 7.75   0.0000    426.5462    432.7873  -2.62      28681.6     1.567           15     0.493      4.009   0.00605832  16.9060         58
 6.12   0.0000    434.0167    151.0135 -28.97     571.0896     0.789           15     0.781      0.962   0.00605558  21.1582         59
 3.88   0.0000    450.3694     21.3889 -15.23     5663.982     1.705           15     1.651      1.038  0.006057635  18.6672         60
 3.82   0.0000    457.8665     34.6008 -24.79     6392.493     1.751           15     1.664      0.977  0.006059005  18.5358         61
 6.19   0.0000    445.1345    122.2004 -43.52     672.0513     1.230           15     1.050      1.343  0.006059689  20.9815         62
 6.02   0.0000    439.9788    305.5764  -2.57     614.4357     1.027           15     0.784      0.870   0.00605695  21.0788         63
 5.49   0.0000    467.4917    850.3239  22.50     3607.279     5.904           15     1.818     11.357  0.006051468  19.1570         64
 4.46   0.0000    463.7177    468.7029  23.51     1865.289     1.437           15     1.374      0.961   0.00604941  19.8731         65
 7.83   0.0000    452.6775   1533.3118  45.56      320.567     0.563           15     0.341      0.879  0.006050096  21.7852         66
 5.56   0.0000    460.7216   1096.3547 -44.09     569.8853     1.008           15     0.872      1.179  0.006052839  21.1605         67
 4.21   0.0000    472.0145    734.9021 -41.74     2360.875     1.509           15     1.427      0.781  0.006053524  19.6173         68
 4.67   0.0000    471.4069    254.3637 -14.93     1615.571     1.360           15     1.318      1.007  0.006056265  20.0292         69
 3.98   0.0000    477.9256    923.0577 -73.05     3003.689     1.536           15     1.478      0.715  0.006052839  19.3559         70
 4.94   0.0000    477.4364   1276.4424 -46.13     1035.233     1.083           15     0.882      1.264  0.006057635  20.5124         71
 4.57   0.0000    483.9413   1070.6448 -26.83     1346.478     1.320           15     1.216      0.930   0.00605421  20.2270         72
 5.86   0.0000    495.8116     83.2151  54.41     1758.255     1.947           15     1.697      4.723  0.006054895  19.9373         73
 6.14   0.0000    495.3471   1186.9773 -14.84     1764.658     2.239           15     1.528      5.727  0.006059005  19.9333         74
 9.27   0.0000    488.4953    839.5061  45.05     440.9655     0.505           15     0.495      3.029  0.006048725  21.4390         75
 4.78   0.0000    501.9136    863.8849 -32.42     675.4323     1.170           15     1.086      0.715  0.006050782  20.9760         76
 6.61   0.0000    503.9221    763.0107 -43.28     1006.455     1.297           15     1.183      2.377   0.00605832  20.5430         77
 5.50   0.0000    515.1270   1461.1959  23.62     2349.972     3.165           15     1.428      6.185  0.006057635  19.6223         78
 5.29   0.0000    513.6641   1179.4293 -73.68     754.1703     1.108           15     1.000      0.952   0.00605558  20.8563         79
 7.34   0.0000    509.9552    165.7900  -3.36     685.6588     0.925           15     0.752      4.522   0.00605695  20.9597         80
 6.70   0.0000    518.9847    641.9470 -36.70      518.353     0.799           15     0.787      1.361  0.006057635  21.2634         81
 4.10   0.0000    540.1475    999.9556 -71.45     1916.357     1.421           15     1.395      0.904   0.00605558  19.8438         82
 4.05   0.0000    558.9169   1041.8004 -39.25     2540.064     1.492           15     1.436      0.801   0.00605558  19.5379         83
 3.50   0.0000    580.7043    144.9952 -18.56     11265.81     1.852           15     1.789      1.123   0.00605421  17.9206         84
 6.20   0.0000    571.1791   1448.0082  16.78     1364.283     1.724           15     1.392      3.332  0.006054895  20.2127         85
 5.05   0.0000    571.1408     45.9030  46.69     1561.364     1.723           15     1.375      2.316  0.006050782  20.0662         86
 3.50   0.0000    582.1893    319.2213 -29.88     11008.67     1.849           15     1.828      1.143   0.00605421  17.9457         87
 8.18   0.0000    564.5248    139.4902 -30.93     446.0528     0.500           15     0.499      1.024  0.006050782  21.4265         88
 5.03   0.0000    596.6255    782.6691 -66.55     4301.104     2.754           15     2.550      6.831  0.006056265  18.9660         89
 8.46   0.0000    576.1635   1001.6136 -71.27     434.5288     0.761           15     0.445      1.490   0.00605695  21.4550         90
 5.07   0.0000    584.5106     76.0003  -4.07     620.7451     1.090           15     0.952      0.918  0.006053524  21.0677         91
 5.03   0.0000    999.8098   1273.8372 -43.92     982.7692     1.170           15     1.022      0.846  0.006056265  20.5689         92
 6.79   0.0000   1597.6390    654.5967 -45.12     373.2042     1.116           15     0.977      3.689  0.005197198  21.6201         93
 6.71   0.0000   1594.6692    374.0728  67.41     490.5679     0.914           15     0.695      1.357  0.005865545  21.3233         94
 5.66   0.0000   1545.9485    863.5548  53.44     1370.568     1.260           15     1.155      1.529  0.006056265  20.2077         95
 4.26   0.0000   1542.5569    654.7997 -60.86     3142.147     1.489           15     1.441      0.976   0.00605832  19.3069         96
 3.90   0.0000   1541.7950    135.2048 -50.35     4340.164     1.581           15     1.523      0.849  0.006052839  18.9562         97
 6.56   0.0000    986.5396    454.0250 -88.33     1176.037     1.386           15     1.212      1.841   0.00605695  20.3739         98
 6.14   0.0000    980.8835    797.9240 -35.20     987.0952     1.199           15     1.108      1.416  0.006051468  20.5641         99
 8.18   0.0000    978.1918    452.6013 -71.18     539.2701     0.748           15     0.450      1.050  0.006052839  21.2205        100
 6.60   0.0000    965.0332    416.3022  86.88     458.0486     0.734           15     0.675      0.997   0.00604941  21.3977        101
 7.07   0.0000    950.6561    654.3515 -46.99     908.1597     1.025           15     0.890      1.895   0.00605558  20.6546        102
 6.76   0.0000    947.8088    445.1726 -45.09      436.168     0.748           15     0.566      0.861  0.006056265  21.4509        103
 4.16   0.0000    939.1533   1067.2017 -58.68     2049.562     1.446           15     1.381      0.940  0.006059005  19.7708        104
 8.98   0.0000    938.4924    516.4891  45.18     714.8453     0.505           15     0.495      1.899  0.006050096  20.9145        105
 4.40   0.0000    928.2680   1322.5824 -56.66     1155.842     1.303           15     1.216      1.018  0.006057635  20.3928        106
 4.70   0.0000    912.7397    838.6965 -39.63     966.8795     1.150           15     1.092      0.918  0.006051468  20.5866        107
 6.06   0.0000    912.1494   1001.1208 -45.05     602.8026     0.824           15     0.669      1.069  0.006052153  21.0996        108
 3.54   0.0000    900.4453    302.8825 -85.15     7138.792     1.740           15     1.710      1.055  0.006052839  18.4159        109
 6.10   0.0000    896.0751    538.3304 -11.84       1389.1     1.458           15     1.221      2.279  0.006051468  20.1932        110
 8.47   0.0000    893.5365   1426.4833 -38.45     424.2057     0.502           15     0.497      1.005  0.006052839  21.4811        111
 3.50   0.0000    880.2390   1592.6417 -80.37     58946.16     2.337           15     2.268      1.627  0.006057635  16.1239        112
 7.65   0.0000    888.2291    325.8946  20.30     819.5924     1.147           15     0.652      2.615  0.006053524  20.7660        113
 5.19   0.0000    885.7134   1500.2341  57.73     919.0716     1.135           15     1.108      0.841  0.006054895  20.6416        114
 5.62   0.0000    877.4744    961.1338 -70.66     602.3367     1.010           15     0.875      0.932  0.006050096  21.1004        115
 4.37   0.0000    869.3719   1103.6423 -39.97     2413.734     1.779           15     1.604      1.272  0.006057635  19.5933        116
 6.32   0.0000    867.7889    939.9327  35.04     1000.189     1.345           15     1.117      2.692   0.00605832  20.5498        117
 5.72   0.0000    858.3664   1339.6073 -50.83     713.5315     1.020           15     0.872      1.119   0.00605695  20.9165        118
 5.58   0.0000    844.8506   1064.1110  83.28     571.7035     0.884           15     0.873      0.634  0.006052153  21.1571        119
 5.15   0.0000    843.2003   1106.2869  21.11     1080.505     1.358           15     1.133      1.238   0.00605421  20.4659        120
 4.45   0.0000    836.6286    298.7254 -43.67     1567.072     1.355           15     1.249      0.916  0.006054895  20.0623        121
 7.01   0.0000    835.4894    819.0327  -0.90     390.1875     0.782           15     0.500      0.971  0.006053524  21.5718        122
 3.56   0.0000    823.0253    654.4568   1.82     7022.288     1.753           15     1.718      0.970  0.006057635  18.4338        123
 3.70   0.0000    803.0850   1378.8055 -34.87     6708.479     1.688           15     1.663      1.032  0.006054895  18.4834        124
 3.50   0.0000    798.5104    695.7368 -87.54     18373.43     2.589           15     1.943      1.996  0.006052839  17.3895        125
 3.96   0.0000    800.6845     41.2849 -43.50     3114.433     1.528           15     1.506      0.930   0.00604941  19.3166        126
 5.32   0.0000    774.0239   1427.4475  88.38     2159.261     2.326           15     1.674      4.645   0.00605832  19.7142        127
 4.44   0.0000    742.7661    556.4435 -30.50     1629.166     1.398           15     1.282      0.927   0.00605832  20.0201        128
 5.41   0.0000    738.0269   1158.1278 -88.56      571.131     0.964           15     0.853      0.935   0.00605558  21.1582        129
 5.89   0.0000    736.1250    649.8141  25.90     632.4479     0.881           15     0.859      0.805  0.006059005  21.0474        130
 3.50   0.0000    726.6069    848.5333 -46.29     50990.34     2.255           15     2.214      1.487  0.006059005  16.2813        131
 4.43   0.0000    727.3254   1178.3730  57.64       1110.1     1.280           15     1.236      1.009  0.006054895  20.4366        132
 7.83   0.0000    721.3849   1394.8331 -18.23     444.7159     0.753           15     0.448      1.136  0.006056265  21.4298        133
 4.45   0.0000    715.8329    808.4426  24.42     1416.309     1.314           15     1.266      0.870   0.00605832  20.1721        134
 4.44   0.0000    708.8307   1163.8340 -84.28     1455.808     1.329           15     1.291      0.756  0.006057635  20.1422        135
 4.94   0.0000    704.2529   1339.2089 -30.67     1401.238     1.450           15     1.307      1.371  0.006059005  20.1837        136
 3.97   0.0000    702.8453    952.6252 -31.00     2590.222     1.559           15     1.461      0.982   0.00605832  19.5167        137
 6.47   0.0000    691.5324   1213.7166  82.90     531.6246     1.002           15     0.982      1.177  0.006052153  21.2360        138
 6.61   0.0000    686.5461   1213.6477 -68.65     392.0756     0.941           15     0.821      0.999   0.00605558  21.5666        139
 4.36   0.0000    685.5400    644.2988 -66.40     2104.529     1.420           15     1.405      1.001  0.006050096  19.7421        140
 8.19   0.0000    687.6437    130.7065 -48.00      328.465     0.569           15     0.336      0.975  0.006050096  21.7588        141
 3.50   0.0000    648.2842   1464.4399 -62.27     50111.13     2.231           15     2.186      1.493  0.006054895  16.3002        142
 5.54   0.0000    654.5901    870.9860  82.18     643.1813     0.974           15     0.965      0.856  0.006053524  21.0292        143
 8.27   0.0000    645.6544    652.6979 -47.10     416.1222     0.568           15     0.337      1.033  0.006050096  21.5019        144
 5.22   0.0000    630.6179    806.3264  45.41     683.1421     1.039           15     0.952      0.931  0.006059005  20.9637        145
 4.66   0.0000    623.3268   1581.6411 -66.06     1154.439     1.292           15     1.238      1.046  0.006054895  20.3941        146
 4.50   0.0000   1561.1639    861.4806  -6.45      1645.12     1.232           15     1.182      1.012   0.00605421  20.0095        147
 3.50   0.0000   1563.6666    304.3031 -31.23     47509.52     2.181           15     2.157      1.533   0.00605421  16.3580        148
 4.63   0.0000   1584.8922   1108.8398 -44.03     2085.809     1.264           15     1.198      0.699  0.006050096  19.7518        149
 5.24   0.0000   1565.6985    784.6230 -54.95     1684.704     1.444           15     1.300      1.550  0.006051468  19.9837        150
 3.79   0.0000   1552.4926    682.2964 -25.14     18188.46     4.143           15     3.622      8.409   0.00604941  17.4005        151
 4.17   0.0000   1566.7090     22.0204  -4.79     2725.843     1.456           15     1.435      0.815  0.006053524  19.4612        152
 3.50   0.0000   1558.0262    487.7667 -17.22     46123.16     2.189           15     2.163      1.506   0.00605558  16.3902        153
 4.23   0.0000   1570.5049     92.6439 -18.67     2280.425     1.337           15     1.314      0.993  0.006050782  19.6550        154
 6.34   0.0000   1550.9841   1221.9830  46.82     805.2791     0.799           15     0.773      0.675   0.00605558  20.7851        155
 3.50   0.0000   1507.1838    269.4470 -23.94     30202.49     2.073           15     2.044      1.377   0.00605695  16.8499        156
 6.65   0.0000   1514.3151    483.9289  -9.51     920.3942     0.738           15     0.671      1.116  0.006050782  20.6401        157
 5.29   0.0000   1030.2572    302.8515  62.92     1807.134     1.887           15     1.520      3.835  0.006054895  19.9075        158
 8.59   0.0000   1515.3195   1547.3137 -45.30     689.3911     0.563           15     0.341      1.490  0.006051468  20.9538        159
 3.53   0.0000   1514.8853    392.7780 -23.11     9011.605     1.773           15     1.743      1.147   0.00605558  18.1630        160
 3.58   0.0000   1038.6882    525.4940 -13.29     9297.134     1.804           15     1.780      1.052  0.006050096  18.1291        161
 5.07   0.0000   1504.0691    723.4548 -88.27     1210.415     1.097           15     0.951      0.964  0.006052839  20.3427        162
 6.11   0.0000   1079.0824    330.0046 -37.72      640.636     0.794           15     0.774      1.061   0.00605558  21.0335        163
 5.52   0.0000   1071.9434   1219.1146 -55.35     1875.131     1.646           15     1.458      2.455  0.006052153  19.8674        164
 7.99   0.0000   1065.2991   1563.0947 -56.04     1121.467     1.057           15     0.844      4.876   0.00604941  20.4255        165
 3.65   0.0000   1107.4653    428.0556 -19.58     7869.114     1.804           15     1.727      1.006  0.006053524  18.3102        166
 5.38   0.0000   1120.2307    329.8355  56.77     2375.236     1.971           15     1.491      3.933  0.006056265  19.6107        167
 7.31   0.0000   1110.4651    479.0650  11.40     1746.272     1.289           15     1.026      6.661  0.006051468  19.9447        168
 5.59   0.0000   1129.0283    547.4525 -86.88     727.8959     1.094           15     0.954      0.979  0.006057635  20.8948        169
 3.56   0.0000   1388.7188   1428.6116 -57.95     8964.034     1.773           15     1.758      1.061   0.00605695  18.1687        170
 6.03   0.0000   1130.0933    219.6048 -15.80     743.9186     1.019           15     0.744      1.106  0.006053524  20.8712        171
 6.97   0.0000   1411.1737    349.9838  86.50     1084.617     0.924           15     0.764      1.484  0.006056265  20.4618        172
 8.01   0.0000   1388.5385    806.5108 -38.15     799.3152     0.502           15     0.496      1.007  0.006052839  20.7932        173
 3.50   0.0000   1138.5198    148.1800 -23.17     28956.79     2.079           15     2.055      1.385   0.00605695  16.8956        174
 6.48   0.0000   1438.7219   1271.0077  -3.72      825.276     0.729           15     0.676      0.998   0.00605695  20.7585        175
 9.16   0.0000   1440.8411   1082.5140  48.42     170.0054     1.388           15     0.322      6.190   0.00605421  22.4738        176
 4.79   0.0000   1151.1996     99.4435 -26.56     1600.032     1.335           15     1.251      0.992   0.00605832  20.0397        177
 3.85   0.0000   1435.3513    224.8257 -46.67     4355.471     1.598           15     1.516      1.025  0.006059005  18.9524        178
 4.40   0.0000   1415.3262   1386.5820 -89.40     2230.145     1.399           15     1.310      1.051  0.006059005  19.6792        179
 4.10   0.0000   1390.4456    713.3939  10.89     3299.283     1.527           15     1.498      1.018   0.00605832  19.2540        180
 6.24   0.0000   1400.5155   1031.5568  13.43     1317.139     1.140           15     1.028      1.110   0.00605421  20.2509        181
 3.83   0.0000   1439.8461    619.2048  27.78     3338.498     1.496           15     1.435      0.765   0.00605832  19.2411        182
 3.50   0.0000   1393.4135    114.5814 -38.83     61270.42     2.249           15     2.222      1.561  0.006054895  16.0819        183
 5.64   0.0000   1406.2046    329.9472  88.24     986.1771     0.899           15     0.756      0.917  0.006059689  20.5651        184
 3.76   0.0000   1408.1603    308.3598  -7.62     3198.051     1.460           15     1.433      1.004   0.00605832  19.2878        185
 8.09   0.0000   1181.5150    176.4731 -49.29     664.8818     0.501           15     0.498      1.003  0.006051467  20.9931        186
 6.23   0.0000   1259.2883    432.6303  23.41     1857.886     1.456           15     1.274      2.833  0.006053524  19.8775        187
 3.73   0.0000   1157.8705    236.5284  -3.80     6413.486     1.730           15     1.677      0.966   0.00604941  18.5323        188
 4.53   0.0000   1392.2102   1038.9377 -30.88     2467.132     1.403           15     1.355      0.932  0.006059689  19.5695        189
 3.55   0.0000   1372.5156   1019.0226 -32.17     9819.102     1.853           15     1.818      1.077  0.006054895  18.0698        190
 3.50   0.0000   1298.4050    724.9850 -42.94     121942.9     2.422           15     2.356      1.702  0.006053524  15.3346        191
 6.31   0.0000   1293.4220    742.3614 -42.32      1488.54     1.386           15     1.268      1.035   0.00605695  20.1181        192
 4.40   0.0000   1292.7812    412.8307 -41.69     1407.773     1.167           15     1.024      0.770   0.00605558  20.1787        193
 6.58   0.0000   1330.3184    386.9943  -2.29      777.572     0.736           15     0.664      0.958  0.006056265  20.8231        194
 3.50   0.0000   1320.0631    660.0717 -40.08     27268.41     2.116           15     2.062      1.365  0.006051468  16.9608        195
 4.76   0.0000   1332.7743    107.4035 -78.43     1260.899     1.128           15     1.066      0.942  0.006054895  20.2983        196
 5.24   0.0000   1319.3368    263.8580 -26.84     1111.413     1.067           15     0.867      0.948  0.006052839  20.4353        197
 4.58   0.0000   1307.4919    669.7271 -48.75      3150.74     1.532           15     1.501      0.999  0.006052839  19.3040        198
 4.21   0.0000   1329.8575    655.9511 -47.01     3511.419     1.701           15     1.659      0.934  0.006054895  19.1863        199
 3.96   0.0000   1272.6952    610.0601 -55.58     11011.13     3.638           15     2.384      6.182  0.006052839  17.9454        200
 4.88   0.0000   1304.6168    892.8924 -17.96     1014.493     1.131           15     0.949      0.812   0.00605558  20.5344        201
 3.72   0.0000   1291.4041    762.1968 -29.15     7502.448     2.056           15     1.724      1.217  0.006053524  18.3620        202
 3.90   0.0000   1265.4126    807.9324 -43.48     3786.048     1.582           15     1.524      0.963  0.006059005  19.1045        203
 8.57   0.0000   1262.3210    855.3116 -45.49     711.4991     0.562           15     0.341      0.900  0.006051468  20.9196        204
 7.06   0.0000   1229.6307    599.1876 -24.73     882.8755     1.127           15     0.880      1.587  0.006057635  20.6853        205
 3.89   0.0000   1278.0605   1331.4742 -77.34     4871.438     1.673           15     1.584      0.935  0.006053524  18.8309        206
 4.03   0.0000   1210.3558   1278.9287  86.09     9890.824     5.210           15     3.186      9.275  0.006053524  18.0619        207
 6.46   0.0000   1237.8329     48.1339  43.96     624.8786     0.817           15     0.676      1.090   0.00605695  21.0605        208
 6.63   0.0000   1228.7782   1153.7770  44.39     563.1788     0.752           15     0.561      1.006  0.006056265  21.1734        209
 4.27   0.0000   1237.0132   1553.5865 -67.41     2021.926     1.420           15     1.302      0.915   0.00605558  19.7856        210
 3.82   0.0000   1234.3259    304.9406 -47.51     3188.597     1.523           15     1.431      0.995  0.006052839  19.2910        211
 7.09   0.0000   1212.3234   1429.5114 -87.30     1744.363     1.409           15     1.319      6.141  0.006050096  19.9459        212
 5.81   0.0000   1194.9135    124.3039 -72.27     1809.725     1.615           15     1.390      2.293  0.006048725  19.9060        213
 3.66   0.0000   1218.8453   1194.9714  -5.32     11140.22     1.898           15     1.854      1.162  0.006059005  17.9328        214
 4.42   0.0000   1207.5685    838.8837  -3.14     2098.351     1.429           15     1.342      0.909  0.006054895  19.7453        215
 6.09   0.0000   1200.7854   1442.2812 -83.55     1351.852     1.376           15     1.268      1.588   0.00605695  20.2227        216
 3.50   0.0000   1214.5891    513.1241 -29.41     16928.67     1.918           15     1.864      1.220  0.006059005  17.4784        217
 4.38   0.0000   1201.7323    339.2506 -48.09     2036.366     1.381           15     1.313      0.838  0.006052839  19.7779        218
 5.80   0.0000   1180.8035    549.3552 -20.93     817.8995     0.979           15     0.856      0.925  0.006059005  20.7682        219
 5.55   0.0000   1153.2509   1353.1265 -43.07     1092.031     1.212           15     1.051      1.339  0.006051468  20.4544        220
 3.50   0.0000   1129.9724    183.6354 -22.90     17705.46     1.953           15     1.896      1.269  0.006056265  17.4297        221
 3.50   0.0000   1165.1548   1299.8473 -50.59     41902.41     2.175           15     2.151      1.423   0.00605832  16.4944        222
 5.83   0.0000   1161.5276    887.7175 -49.37     721.3088     0.969           15     0.961      0.964  0.006050782  20.9047        223
 8.19   0.0000   1090.7531    468.1144 -54.69     860.3895     1.110           15     0.523      3.561   0.00605421  20.7133        224
 7.63   0.0000   1089.8258    782.5095  48.39     22310.05     1.385           15     0.319      2.151   0.00605421  17.1787        225
 3.50   0.0000   1079.9790    512.2535 -35.03     29895.32     2.112           15     2.089      1.422   0.00605695  16.8610        226
 4.85   0.0000   1095.3096   1526.7147  63.28     1074.155     1.142           15     1.103      1.071  0.006051468  20.4723        227
 3.50   0.0000   1040.2450    633.1851 -26.48     35323.24     2.163           15     2.114      1.409  0.006056265  16.6798        228
 3.51   0.0000   1081.7589   1148.2657 -21.91     10950.14     1.830           15     1.780      1.098   0.00605558  17.9515        229
 6.29   0.0001   1065.6869   1597.0300  -7.09     102.3342     0.738           15     0.668      2.666  0.005361455  23.0249        230
 3.50   0.0000   1025.7262   1380.0560 -44.87     19784.08     1.973           15     1.955      1.292  0.006052153  17.3092        231
 3.50   0.0000   1009.7764    813.8215 -29.77     18152.11     1.981           15     1.919      1.250   0.00605695  17.4027        232
 3.50   0.0000    984.8859    558.5669 -30.02     26667.81     2.094           15     2.053      1.356   0.00605558  16.9850        233
 4.14   0.0000   1011.2820    344.8709 -19.49     2740.498     1.463           15     1.431      1.044  0.006050782  19.4554        234
 4.18   0.0000   1001.6823    542.6569 -35.18      2904.77     1.571           15     1.503      0.994  0.006052839  19.3922        235
 4.92   0.0000   1001.4156   1555.6001 -44.34     1274.465     1.292           15     1.169      1.056   0.00605421  20.2867        236
