#   1 KRON_RADIUS            Kron apertures in units of A or B                         
#   2 MAGERR_APER            RMS error vector for fixed aperture mag.                   [mag]
#   3 Y_IMAGE                Object position along y                                    [pixel]
#   4 X_IMAGE                Object position along x                                    [pixel]
#   5 FLUX_APER              Flux vector within fixed circular aperture(s)              [count]
#   6 THRESHOLD              Detection threshold above background                       [count]
#   7 THETA_IMAGE            Position angle (CCW/x)                                     [deg]
#   8 A_IMAGE                Profile RMS along major axis                               [pixel]
#   9 B_IMAGE                Profile RMS along minor axis                               [pixel]
#  10 FLUX_RADIUS            Fraction-of-light radii                                    [pixel]
#  11 FLUXERR_APER           RMS error vector for aperture flux(es)                     [count]
#  12 MAG_APER               Fixed aperture magnitude vector                            [mag]
#  13 NUMBER                 Running object number                                     
 4.17   0.0000     53.2565     63.6428     82101.77      43.5463   1.98     5.123     4.572      8.049   0.01778184  15.7641          1
 3.87   0.0000     16.4784    985.0769     13082.96      43.5463 -88.62     4.214     1.929      5.146   0.01777982  17.7582          2
 3.94   0.0000     18.0460     91.3107     12383.04      43.5463 -21.89     1.737     1.698      0.983    0.0177758  17.8179          3
 3.50   0.0000     14.6388   1445.7582     32473.91      43.5463 -57.14     1.867     1.780      1.090   0.01778989  16.7712          4
 8.01   0.0000     10.3046   1183.6648     483.2557      43.5463  43.46     0.565     0.339      1.046   0.01777781  21.3396          5
 7.29   0.0000      4.4737    145.2111     417.1785      43.5463 -88.54     1.003     0.739      2.084   0.01612004  21.4992          6
 6.79   0.0000     17.2495    384.5198     1106.639      43.5463  14.89     0.994     0.963      1.012   0.01777781  20.4400          7
 5.10   0.0000     24.7656    367.2277     2359.214      43.5463 -21.08     1.302     1.279      0.850   0.01778586  19.6181          8
 3.50   0.0000     59.7884   1078.4711     117239.3      43.5463  81.96     2.254     2.134      1.495   0.01779793  15.3773          9
 8.47   0.0000     23.7820    383.3971     699.1652      43.5463 -72.10     0.757     0.452      1.401   0.01777982  20.9385         10
 6.25   0.0000     34.0507   1110.2819     1089.282      43.5463  62.34     1.556     0.820      2.715    0.0177758  20.4571         11
 7.75   0.0000     33.6917    326.9680      693.879      43.5463   4.05     0.746     0.680      2.005   0.01777781  20.9468         12
 5.80   0.0000     37.8551   1521.1614     665.1235      43.5463  46.17     0.829     0.669      0.903   0.01778787  20.9927         13
 7.09   0.0000     38.8824   1170.3628     580.9828      43.5463  19.36     0.930     0.690      1.185   0.01778586  21.1396         14
 5.89   0.0000     42.2124    915.4865     694.4655      43.5463   0.03     0.960     0.732      1.189   0.01778787  20.9459         15
 3.50   0.0000     80.1619    537.6298     104818.2      43.5463 -62.67     2.147     2.092      1.492   0.01778989  15.4989         16
 9.34   0.0000     44.4960    440.5079     624.0458      43.5463 -45.27     0.502     0.498      2.213   0.01776774  21.0620         17
 4.11   0.0000     75.1902    128.0414         5139      43.5463 -37.04     1.529     1.468      1.015   0.01778989  18.7728         18
 6.49   0.0000     82.2800    421.5060     929.4141      43.5463 -72.84     0.994     0.983      1.514   0.01777378  20.6295         19
 5.82   0.0000     90.8266    377.0053     1956.599      43.5463 -20.10     1.665     1.529      3.504   0.01778787  19.8212         20
 3.50   0.0000    121.8114    789.1776     156031.3      43.5463 -58.05     2.229     2.157      1.472   0.01778385  15.0670         21
 4.36   0.0000     96.6437     56.2313     7541.769      43.5463 -31.28     1.614     1.551      0.913   0.01779391  18.3563         22
 5.99   0.0000     98.0480    452.9695     1382.412      43.5463 -14.64     1.446     1.005      2.455   0.01779391  20.1984         23
 7.37   0.0000     91.5052    495.9703     687.6021      43.5463  -1.48     0.787     0.500      0.933   0.01777982  20.9567         24
 3.50   0.0000    162.3181   1468.3154      96711.4      43.5463 -54.27     2.107     2.045      1.388   0.01777378  15.5863         25
 6.96   0.0000    131.2889    418.0246     441.9734      43.5463   6.46     0.732     0.680      1.037   0.01778184  21.4365         26
 3.51   0.0000    170.3064    877.3268     29157.54      43.5463 -37.22     1.862     1.820      1.104    0.0177758  16.8881         27
 8.35   0.0000    151.4877   1280.4851     581.6949      43.5463 -45.63     0.501     0.498      1.015   0.01777378  21.1383         28
 5.42   0.0000    164.9675   1445.6466     2004.607      43.5463  15.16     1.301     1.188      0.869   0.01779391  19.7949         29
 4.31   0.0000    166.7818    104.4359      1723.08      43.5463 -17.88     1.262     1.144      0.963    0.0177919  19.9592         30
 6.36   0.0000    169.3399   1368.8975     509.5405      43.5463  67.99     0.912     0.688      1.100   0.01777177  21.2821         31
 7.84   0.0000    180.1621    574.8980     1057.937      43.5463  43.06     0.862     0.672      2.324   0.01776975  20.4888         32
 7.46   0.0000    186.6548   1354.9116     848.1443      43.5463  76.16     1.037     0.755      1.480    0.0177758  20.7288         33
 5.19   0.0000    192.5967   1350.5398     2676.267      43.5463 -13.63     1.363     1.306      1.002   0.01779793  19.4812         34
 4.70   0.0000    210.7428    827.6968     8934.325      43.5463  -6.18     3.876     2.046      6.527   0.01776975  18.1723         35
 4.00   0.0000    206.6966    549.0604     5316.303      43.5463 -49.71     1.513     1.492      0.821   0.01777378  18.7360         36
 4.11   0.0000    212.1412   1306.0922     5007.071      43.5463  48.60     1.503     1.492      0.836   0.01777378  18.8010         37
 5.41   0.0000    230.1308    562.3044     8190.372      43.5463 -39.65     3.208     3.006      7.428   0.01777781  18.2667         38
 5.63   0.0000    210.9195    684.8603     1253.858      43.5463 -65.24     1.213     1.116      1.491   0.01777781  20.3044         39
 3.50   0.0000    259.7673    997.4636     253378.9      43.5463 -49.22     2.326     2.227      1.583   0.01778586  14.5406         40
 3.86   0.0000    223.9153   1226.0546     6101.366      43.5463  26.73     1.504     1.485      0.619   0.01777378  18.5864         41
 4.85   0.0000    222.5792    774.9357      1961.54      43.5463 -38.99     1.212     1.165      0.914    0.0177919  19.8185         42
 3.50   0.0000    265.9208     67.5955     191516.8      43.5463 -49.39     2.265     2.196      1.543   0.01778787  14.8445         43
 5.43   0.0000    243.9537    112.8670     3270.646      43.5463 -87.80     1.944     1.539      2.330   0.01778385  19.2634         44
 4.72   0.0000    255.4751    612.9941     8487.349      43.5463 -39.55     2.421     2.015      2.376   0.01779592  18.2281         45
 6.41   0.0000    239.3534    838.8110     1060.622      43.5463  -5.01     1.207     1.103      1.536   0.01778989  20.4861         46
 7.10   0.0000    250.5009    107.5042     969.1417      43.5463 -43.09     1.109     0.854      1.046   0.01777177  20.5840         47
 3.50   0.0000    287.5338   1486.4602     57770.37      43.5463 -51.40     2.024     1.972      1.186   0.01777781  16.1457         48
 3.59   0.0000    281.9197   1522.3905     14143.02      43.5463 -19.94     1.694     1.647      0.926   0.01778586  17.6736         49
 6.53   0.0000    270.8847   1273.6149     975.1418      43.5463  14.10     1.033     0.744      1.093   0.01778586  20.5773         50
 3.50   0.0000    303.1575    201.7498     46024.09      43.5463 -49.83     1.952     1.913      1.235   0.01778989  16.3925         51
 6.10   0.0000    293.2261   1475.8163     1899.233      43.5463 -40.46     1.240     1.134      1.182   0.01778787  19.8536         52
 4.59   0.0000    302.2395    563.7120     2481.507      43.5463  21.58     1.338     1.245      1.082   0.01778184  19.5632         53
 8.77   0.0000    292.5020    248.4889     442.7182      43.5463 -46.51     0.501     0.499      1.154   0.01776774  21.4347         54
 3.50   0.0000    322.0915    697.3416     33311.84      43.5463 -10.33     1.848     1.812      1.122   0.01777378  16.7435         55
 7.71   0.0000    308.7028     85.3052     834.3304      43.5463  46.83     0.969     0.765      2.223   0.01776774  20.7467         56
 6.02   0.0000    321.8692    641.5228     1944.709      43.5463 -65.00     1.773     1.200      3.258   0.01777378  19.8279         57
 5.05   0.0000    327.5058    595.4429     4335.425      43.5463  10.57     1.724     1.717      1.244   0.01776975  18.9574         58
 5.89   0.0000    329.2318   1546.0073      1018.79      43.5463 -87.79     0.902     0.759      0.989   0.01778989  20.5298         59
 5.72   0.0000    332.2732     93.4231     1250.914      43.5463  16.80     0.992     0.954      1.032   0.01778989  20.3069         60
 3.50   0.0000    368.3845    760.8975     33467.18      43.5463 -45.12     2.558     1.841      1.186   0.01778184  16.7385         61
 4.69   0.0000    350.0923     54.7249     2822.589      43.5463 -36.82     1.357     1.328      0.961   0.01777378  19.4234         62
 3.93   0.0000    361.1682   1500.3911     5648.983      43.5463 -15.61     1.577     1.452      0.986   0.01778787  18.6701         63
 3.50   0.0000    395.2360    231.4487     116854.1      43.5463 -60.98     2.186     2.116      1.477   0.01778989  15.3809         64
 5.51   0.0000    360.5753   1033.9026     1337.364      43.5463 -13.57     1.158     0.962      0.919   0.01777781  20.2344         65
 7.31   0.0000    370.4859     71.9584     647.7134      43.5463 -87.89     0.815     0.701      1.185   0.01778184  21.0215         66
 6.35   0.0000    373.5033   1083.8605     1015.825      43.5463 -17.55     1.103     0.982      1.678   0.01777378  20.5330         67
 6.43   0.0001    380.6082      1.4856     180.9336      43.5463 -89.71     1.605     0.500      3.024   0.01358483  22.4062         68
 3.50   0.0000    397.0699   1461.1993     23312.72      43.5463 -74.23     1.779     1.761      1.066   0.01779391  17.1310         69
 3.50   0.0000    398.1953    354.6356     26411.77      43.5463 -38.67     1.844     1.807      1.083   0.01778787  16.9955         70
 8.23   0.0000    375.6642     87.3029     607.3015      43.5463  46.67     0.565     0.339      1.043   0.01777982  21.0915         71
 6.56   0.0000    380.1645    125.8450     854.0985      43.5463  44.75     0.820     0.679      1.161   0.01779391  20.7212         72
 4.11   0.0000    393.8165   1088.7810     5466.438      43.5463 -37.44     1.519     1.447      0.844   0.01778586  18.7057         73
 8.74   0.0000    382.4934     67.5072     699.0035      43.5463 -45.03     0.504     0.496      1.170   0.01776774  20.9388         74
 8.20   0.0000    388.6971   1195.3385     534.2877      43.5463  43.22     0.566     0.339      1.097   0.01777378  21.2306         75
 6.05   0.0000    412.0412      1.7690     413.0603      43.5463 -89.92     2.513     0.700      4.610   0.01387163  21.5100         76
 7.56   0.0000    397.0254    626.6956     1726.158      43.5463 -65.30     1.341     1.083      4.599   0.01777982  19.9573         77
 7.93   0.0000    403.4896    526.4983     743.1595      43.5463  89.32     1.090     0.500      2.666   0.01776774  20.8723         78
 7.01   0.0000    407.0443    282.2940     649.3495      43.5463  89.42     0.737     0.674      0.995   0.01776975  21.0188         79
 3.50   0.0000    437.9754    252.0879     50658.84      43.5463 -73.79     1.987     1.960      1.311   0.01778385  16.2884         80
 3.50   0.0000    461.0806    807.6478     289895.3      43.5463 -61.03     2.345     2.265      1.578   0.01777982  14.3944         81
 5.82   0.0000    420.8114    159.0276      2037.33      43.5463  31.01     1.646     1.399      1.904   0.01778787  19.7773         82
 7.46   0.0000    419.5259   1580.4933     621.1857      43.5463  42.63     0.503     0.496      1.008   0.01777378  21.0669         83
 4.09   0.0000    432.9641   1422.0618     3580.201      43.5463  10.78     1.426     1.390      0.590   0.01778586  19.1652         84
 6.56   0.0000    426.6788   1179.2426     1258.013      43.5463   4.87     1.217     0.942      1.888   0.01778184  20.3008         85
 6.30   0.0000    426.7638    432.9953     77744.31      43.5463  -1.33     2.306     0.724      4.209   0.01778787  15.8233         86
 7.97   0.0000    426.3199    299.6852      596.571      43.5463  45.26     0.563     0.340      0.873   0.01777378  21.1108         87
 5.15   0.0000    434.2638    151.1026     1677.349      43.5463 -22.15     1.134     1.029      0.837   0.01777982  19.9884         88
 3.83   0.0000    450.3487     21.3388      16635.7      43.5463 -48.98     1.765     1.732      1.048   0.01777982  17.4974         89
 4.97   0.0000    467.8039    850.5261      10562.4      43.5463  22.58     7.410     2.036     11.410   0.01779592  17.9906         90
 9.78   0.0000    430.5058    718.5177     994.3504      43.5463  46.24     0.503     0.497      3.018   0.01777378  20.5562         91
 4.44   0.0000    439.9993    305.8438     1804.661      43.5463  43.70     1.155     1.138      0.892   0.01779391  19.9090         92
 3.72   0.0000    457.8458     34.5835     18775.41      43.5463 -52.57     1.776     1.744      0.961   0.01778989  17.3660         93
 5.37   0.0000    445.1875    122.3629     1972.645      43.5463 -18.75     1.407     1.262      1.288   0.01778989  19.8124         94
 7.36   0.0000    443.7620    655.0262     533.9024      43.5463   1.24     0.687     0.426      0.997   0.01778989  21.2313         95
 4.21   0.0000    463.6682    468.6435     5478.545      43.5463  53.82     1.598     1.540      0.974   0.01778385  18.7033         96
 6.17   0.0000    452.9252   1533.0214     941.5385      43.5463 -29.49     0.791     0.773      0.891    0.0177919  20.6154         97
 5.02   0.0000    461.0328   1096.1024     1673.812      43.5463  25.35     1.186     1.122      1.220   0.01776975  19.9907         98
 3.93   0.0000    472.1450    734.9465     6934.134      43.5463  81.94     1.560     1.476      0.742   0.01778385  18.4475         99
 4.57   0.0000    471.3524    254.2341      4738.58      43.5463 -43.46     1.496     1.431      1.043   0.01778989  18.8609        100
 7.57   0.0000    461.8461    724.7260     951.0693      43.5463 -20.19     0.947     0.682      2.036   0.01777781  20.6045        101
 3.65   0.0000    477.9322    923.0837     8822.145      43.5463 -33.10     1.669     1.599      0.721    0.0177758  18.1861        102
 4.25   0.0000    477.2760   1276.4293     3040.585      43.5463 -44.94     1.341     0.920      1.342   0.01778385  19.3426        103
 5.70   0.0000    488.8282    839.6331     1295.166      43.5463  88.79     2.086     0.973      3.607   0.01778787  20.2692        104
 4.03   0.0000    484.0666   1070.6798     3954.743      43.5463 -55.90     1.426     1.366      0.911   0.01777378  19.0572        105
 6.55   0.0000    476.0097   1168.3048     648.3705      43.5463  86.99     0.730     0.675      0.986   0.01777982  21.0204        106
 5.24   0.0000    496.2249     82.9241     5173.317      43.5463  67.05     2.294     2.075      4.635   0.01778586  18.7656        107
 6.75   0.0000    478.8782    682.8464     733.1883      43.5463 -45.71     0.818     0.680      1.131   0.01777781  20.8870        108
 5.08   0.0000    495.6584   1186.8361      5201.72      43.5463 -15.84     2.977     1.887      5.635   0.01778787  18.7596        109
 5.01   0.0000    504.2094    762.9064     2957.022      43.5463 -89.47     1.764     1.674      2.326   0.01778184  19.3729        110
 4.68   0.0000    501.9949    863.7543     1983.814      43.5463   0.62     1.253     1.182      0.744   0.01779391  19.8062        111
 4.47   0.0000    515.3533   1461.0763     6909.061      43.5463  24.01     4.103     1.634      6.145    0.0177758  18.4515        112
 5.91   0.0000    498.0129    366.2479      883.011      43.5463  -0.58     0.922     0.749      1.054    0.0177919  20.6851        113
 6.00   0.0000    509.9556    165.0489     2015.144      43.5463 -10.41     1.837     1.020      3.854   0.01778989  19.7892        114
 4.78   0.0000    513.9047   1179.2246     2215.076      43.5463  -5.57     1.244     1.182      0.907   0.01777982  19.6865        115
 5.35   0.0000    519.1333    641.9204      1522.66      43.5463  20.46     1.195     1.114      1.314   0.01777378  20.0935        116
 6.42   0.0000    518.1923   1519.1840     761.7329      43.5463  46.10     0.759     0.567      1.041    0.0177758  20.8455        117
 4.07   0.0000    540.2014    999.9447      5628.54      43.5463  -7.60     1.478     1.467      0.880   0.01779994  18.6740        118
 6.33   0.0000    536.3397    404.5272     931.7665      43.5463  39.13     1.182     0.788      1.780   0.01777781  20.6267        119
 3.79   0.0000    558.9291   1041.7891      7460.43      43.5463   0.03     1.618     1.552      0.826   0.01779592  18.3681        120
 4.65   0.0000    571.2954     45.8589     4585.869      43.5463  48.88     2.091     1.515      2.277   0.01777378  18.8964        121
 5.98   0.0000    555.8099    778.7978     638.3958      43.5463  45.31     0.757     0.566      0.841   0.01777982  21.0373        122
 3.50   0.0000    580.7115    144.9684     33088.84      43.5463 -70.14     1.859     1.826      1.127   0.01778184  16.7508        123
 4.50   0.0000    571.3770   1447.8510     3996.176      43.5463  19.22     2.289     1.667      3.287   0.01779391  19.0459        124
 5.72   0.0000    565.1072    139.5361     1310.103      43.5463 -68.23     1.046     0.976      0.995   0.01777982  20.2567        125
 4.21   0.0000    596.6942    782.6355     12624.46      43.5463 -64.90     3.326     3.088      6.840   0.01777378  17.7970        126
 3.50   0.0000    582.2111    319.2451     32333.59      43.5463   2.55     1.852     1.810      1.124   0.01778787  16.7759        127
 6.15   0.0000    576.3021   1001.8055     1276.239      43.5463  28.92     1.220     1.022      1.503   0.01777982  20.2852        128
 4.56   0.0000    584.5316     76.0103     1823.192      43.5463  -8.04     1.204     1.139      0.915   0.01779592  19.8979        129
 4.04   0.0000   1001.5208   1555.4537     3743.236      43.5463  52.13     1.345     1.320      1.001    0.0177758  19.1169        130
 4.65   0.0000   1597.6199    654.7779     1096.139      43.5463   2.77     1.652     1.432      3.662   0.01528579  20.4503        131
 5.04   0.0000   1594.7402    374.1065     1440.849      43.5463  43.35     1.308     1.019      1.363   0.01719027  20.1535        132
 3.98   0.0000   1584.9110   1108.9387     6126.237      43.5463 -13.63     1.428     1.352      0.690   0.01777781  18.5820        133
 6.67   0.0000   1585.9336   1069.5111     1634.255      43.5463 -89.02     0.781     0.500      0.938   0.01777781  20.0167        134
 3.53   0.0000   1541.8699    135.1601     12747.51      43.5463  70.30     1.663     1.606      0.843   0.01778586  17.7864        135
 4.63   0.0000   1514.6406    483.6134     2703.292      43.5463 -43.54     1.049     0.948      0.976   0.01778787  19.4703        136
 4.31   0.0000    912.4411   1001.0433     1770.493      43.5463   2.65     1.099     0.958      0.979    0.0177919  19.9298        137
 3.50   0.0000    900.4877    302.8330     20967.37      43.5463  49.85     1.765     1.762      1.015   0.01778385  17.2461        138
 4.77   0.0000    896.2084    538.5322     4079.933      43.5463   2.64     1.932     1.586      2.258   0.01779592  19.0234        139
 5.28   0.0000    893.7969   1426.2902     1245.936      43.5463 -18.67     0.977     0.852      0.800   0.01777781  20.3113        140
 3.50   0.0000    880.2279   1592.5995     173131.4      43.5463 -74.88     2.295     2.153      1.600   0.01778184  14.9541        141
 5.85   0.0000    888.8192    325.9107     2407.207      43.5463  14.33     1.795     1.118      2.571   0.01778385  19.5962        142
 4.32   0.0000    885.7714   1500.3190     2699.408      43.5463 -47.18     1.288     1.236      0.829   0.01778586  19.4718        143
 6.69   0.0000    884.9854    339.2439     1392.589      43.5463   1.88     1.115     0.976      1.631   0.01778787  20.1904        144
 4.41   0.0000    877.7620    961.1234     1769.125      43.5463  48.84     1.163     1.036      0.849   0.01778184  19.9306        145
 7.36   0.0000    876.2601    541.5875     717.3809      43.5463 -71.99     0.730     0.460      1.133   0.01778787  20.9106        146
 4.01   0.0000    869.4244   1103.6707     7089.384      43.5463 -53.80     1.974     1.805      1.272   0.01778787  18.4235        147
 4.73   0.0000    867.9416    939.8662      2935.55      43.5463  40.92     1.861     1.340      2.674   0.01777781  19.3808        148
 6.00   0.0000    869.3427    643.8574     971.4301      43.5463  68.51     0.903     0.685      0.929   0.01777781  20.5815        149
 8.08   0.0000    860.4965   1554.4667     553.1367      43.5463  47.96     0.505     0.494      1.013   0.01777982  21.1929        150
 4.48   0.0000    858.4943   1339.6819     2095.883      43.5463 -89.81     1.307     1.111      1.114   0.01777378  19.7466        151
 9.04   0.0000    855.5130    545.4774     892.3903      43.5463 -47.85     0.501     0.498      1.458   0.01776975  20.6736        152
 4.00   0.0000    844.9637   1063.9869     1679.152      43.5463   0.91     1.166     1.132      0.588   0.01778989  19.9873        153
 4.48   0.0000    843.4077   1106.2847     3173.555      43.5463  32.29     1.633     1.312      1.158   0.01778385  19.2961        154
 4.42   0.0000    836.6409    298.8359     4602.653      43.5463  13.40     1.461     1.389      0.898    0.0177919  18.8925        155
 6.70   0.0000    836.6004   1520.7461       709.14      43.5463  18.12     0.737     0.455      1.004   0.01779793  20.9232        156
 5.61   0.0000    835.6668    819.2198     1146.021      43.5463 -71.79     0.963     0.856      0.980   0.01778989  20.4020        157
 3.50   0.0000    823.0052    654.4105     20625.18      43.5463 -83.81     1.792     1.755      1.009    0.0177758  17.2640        158
 7.85   0.0000    819.4944   1398.4906     565.4016      43.5463  46.57     0.500     0.499      1.010   0.01776774  21.1691        159
 3.50   0.0000    803.0336   1378.7603     19703.49      43.5463 -69.40     1.795     1.721      1.013   0.01778989  17.3136        160
 3.50   0.0000    798.4865    695.7316     53964.65      43.5463 -86.83     2.615     1.932      2.013   0.01777177  16.2197        161
 4.07   0.0000    800.7063     41.1536      9147.41      43.5463 -21.76     1.693     1.566      0.916   0.01777177  18.1468        162
 4.14   0.0000    774.2417   1427.3613     6342.259      43.5463  87.89     2.916     1.917      4.671   0.01778989  18.5444        163
 7.08   0.0000    768.0103    140.0022     1085.147      43.5463  29.11     0.803     0.799      1.379   0.01777982  20.4613        164
 4.13   0.0000    742.8445    556.3011     4785.029      43.5463 -34.92     1.481     1.410      0.917   0.01776774  18.8503        165
 4.18   0.0000    738.1149   1158.1183     1677.471      43.5463  46.52     1.220     1.125      0.900   0.01777378  19.9884        166
 5.08   0.0000    736.0377    649.8889     1857.569      43.5463 -14.78     1.149     1.126      0.847   0.01777982  19.8776        167
 3.50   0.0000    726.6054    848.5026     149763.9      43.5463 -59.30     2.218     2.156      1.496   0.01778184  15.1115        168
 3.76   0.0000    727.4673   1178.3390     3260.479      43.5463 -11.27     1.391     1.325      0.994   0.01777982  19.2668        169
 4.97   0.0000    721.4175   1395.0933     1306.176      43.5463  16.86     1.087     0.945      1.107   0.01778586  20.2600        170
 3.86   0.0000    715.8361    808.3896     4159.846      43.5463  44.55     1.417     1.392      0.897   0.01778787  19.0023        171
 3.89   0.0000    708.9615   1163.8932     4275.857      43.5463  24.41     1.453     1.390      0.679   0.01777177  18.9724        172
 4.36   0.0000    704.3986   1339.0472      4112.39      43.5463 -19.01     1.731     1.435      1.427   0.01779793  19.0148        173
 3.58   0.0000    702.8040    952.5435     7607.749      43.5463   0.10     1.619     1.588      0.957   0.01779994  18.3469        174
 6.22   0.0000    699.0404    582.8082     1889.828      43.5463   2.98     1.801     0.780      2.785   0.01778989  19.8589        175
 5.68   0.0000    691.6804   1213.7858     1560.778      43.5463  77.71     1.495     1.232      1.172   0.01778989  20.0666        176
 5.63   0.0000    686.6819   1213.8464     1145.898      43.5463 -21.78     1.110     0.991      1.077   0.01777781  20.4021        177
 4.13   0.0000    685.6551    644.3333     6181.218      43.5463 -63.50     1.583     1.570      0.991   0.01777982  18.5723        178
 5.64   0.0000    687.6524    130.9210     964.7346      43.5463  76.07     0.992     0.751      0.919    0.0177758  20.5890        179
 7.15   0.0000    668.9968   1221.9562     790.7523      43.5463 -24.53     0.799     0.795      1.505   0.01779592  20.8049        180
 3.50   0.0000    648.2855   1464.4170     147181.5      43.5463 -69.67     2.216     2.119      1.489   0.01778586  15.1304        181
 4.97   0.0000    654.7122    870.9673      1889.09      43.5463   2.52     1.152     1.052      0.822   0.01778385  19.8594        182
 6.73   0.0000    645.7885    653.0032     1221.925      43.5463 -88.03     0.910     0.757      0.961   0.01777781  20.3324        183
 7.14   0.0000    641.2024    276.8073     658.6094      43.5463 -45.81     0.756     0.567      1.216   0.01777781  21.0034        184
 4.00   0.0000    630.8334    806.1291     2006.459      43.5463 -32.81     1.204     1.121      0.898   0.01778586  19.7939        185
 4.18   0.0000    623.4021   1581.5424     3390.707      43.5463 -70.30     1.343     1.334      1.021   0.01779793  19.2243        186
 7.17   0.0000    618.3039   1151.0571     1432.905      43.5463 -56.98     1.011     0.847      1.713   0.01776975  20.1595        187
 8.01   0.0000    609.5258    945.4915     789.3326      43.5463  43.32     0.505     0.495      1.011    0.0177758  20.8068        188
 4.05   0.0000   1566.7317     22.0384      8006.08      43.5463 -82.69     1.558     1.536      0.848   0.01778586  18.2914        189
 3.90   0.0000   1542.6284    654.7056     9228.809      43.5463 -20.66     1.560     1.526      0.991   0.01777781  18.1371        190
 3.50   0.0000   1563.6940    304.2377     139540.3      43.5463 -66.29     2.153     2.092      1.528   0.01777177  15.1882        191
 3.50   0.0000   1558.0250    487.6977     135468.5      43.5463 -66.03     2.143     2.087      1.519   0.01777781  15.2204        192
 4.07   0.0000   1570.5496     92.7681     6697.842      43.5463   5.62     1.449     1.365      0.994    0.0177919  18.4852        193
 4.35   0.0000   1546.1001    863.5326       4025.5      43.5463  60.65     1.555     1.323      1.522    0.0177758  19.0380        194
 4.36   0.0000   1561.2551    861.5045     4831.888      43.5463  24.14     1.333     1.259      0.991   0.01777378  18.8397        195
 4.29   0.0000   1565.7307    784.6671     4948.158      43.5463 -79.71     1.779     1.443      1.526   0.01777177  18.8139        196
 4.98   0.0000   1550.8820   1221.9401      2365.22      43.5463  62.30     1.036     0.926      0.725    0.0177758  19.6153        197
 3.52   0.0000   1552.6270    682.2676     53435.57      43.5463 -26.28     4.564     3.920      8.443   0.01778787  16.2304        198
 7.78   0.0000   1535.9836   1429.0035     1911.352      43.5463 -45.74     0.928     0.527      2.812   0.01777982  19.8466        199
 7.02   0.0000   1532.6090    415.6633     2189.246      43.5463  48.72     1.033     0.896      1.810   0.01779793  19.6993        200
 7.52   0.0000   1519.9846   1100.6998     1796.017      43.5463  86.06     0.750     0.674      1.795   0.01778184  19.9142        201
 3.93   0.0000    928.3964   1322.5002     3394.827      43.5463 -31.62     1.356     1.325      1.003   0.01778184  19.2230        202
 3.50   0.0000   1514.9313    392.7249     26468.01      43.5463 -23.87     1.775     1.769      1.090   0.01777177  16.9932        203
 5.93   0.0000   1515.3757   1547.3199     2024.812      43.5463  51.18     1.032     0.871      1.478   0.01778586  19.7840        204
 3.50   0.0000   1507.2021    269.3686     88707.82      43.5463 -48.81     2.044     2.007      1.361   0.01778385  15.6801        205
 5.06   0.0000   1498.3208    844.3195     2010.358      43.5463 -45.02     0.932     0.754      1.081    0.0177758  19.7918        206
 4.39   0.0000   1504.1243    723.3888     3555.114      43.5463  12.61     1.292     1.159      0.955   0.01779592  19.1729        207
 3.91   0.0000    939.1819   1067.1804     6019.774      43.5463 -23.57     1.513     1.435      0.942   0.01778586  18.6010        208
 6.65   0.0000   1488.1456     78.1188      1950.02      43.5463 -45.13     0.829     0.671      1.144   0.01777177  19.8249        209
 3.90   0.0000    912.9329    838.5873     2839.824      43.5463   2.45     1.314     1.169      0.870   0.01779592  19.4168        210
 5.59   0.0000    950.8376    654.3040     2666.842      43.5463  78.79     1.551     1.317      1.862   0.01777177  19.4850        211
 5.55   0.0000    947.8024    445.2863      1281.07      43.5463 -18.52     0.958     0.857      0.904   0.01778385  20.2811        212
 5.14   0.0000    965.2233    416.4817      1411.02      43.5463   5.83     0.989     0.953      0.932   0.01778586  20.1762        213
 7.34   0.0000    938.4374    516.3667     2104.172      43.5463  63.09     1.194     0.958      2.970    0.0177919  19.7423        214
 7.70   0.0000   1474.8301    998.5100     2885.422      43.5463  -0.48     0.997     0.737      4.094   0.01777982  19.3995        215
 6.32   0.0000   1482.4355    575.2174      2648.05      43.5463 -30.72     1.216     0.964      2.561    0.0177919  19.4927        216
 5.63   0.0000   1438.6631   1271.3156     2423.935      43.5463 -44.30     0.991     0.877      0.909    0.0177758  19.5887        217
 4.96   0.0000   1072.1385   1219.1556     5513.578      43.5463 -73.38     2.045     1.693      2.614   0.01778787  18.6964        218
 5.54   0.0000   1066.6794    569.0623      998.884      43.5463 -72.69     1.026     0.751      1.028   0.01777378  20.5512        219
 3.80   0.0000   1415.3887   1386.6190     6550.165      43.5463  66.37     1.447     1.403      1.031   0.01778184  18.5094        220
 6.18   0.0000   1090.9879    468.1757     2526.954      43.5463 -62.80     1.759     1.038      3.519   0.01778385  19.5435        221
 5.13   0.0000   1079.4308    330.0719     1881.614      43.5463   1.88     1.105     0.946      0.930   0.01778586  19.8637        222
 4.95   0.0001   1065.6902   1597.3223     300.5659      43.5463 -41.45     0.991     0.875      2.920   0.01550203  21.8552        223
 7.25   0.0000   1441.0599   1082.6106     401.0759      43.5463  43.18     3.004     0.678      7.039   0.01779592  21.5419        224
 3.50   0.0000   1435.3345    224.8122     12792.47      43.5463   8.56     1.647     1.603      1.019   0.01779391  17.7826        225
 3.50   0.0000   1081.8091   1148.2362     32161.69      43.5463 -80.95     1.837     1.797      1.114   0.01778989  16.7817        226
 3.50   0.0000   1107.4955    428.0776      23112.4      43.5463  43.66     1.787     1.762      1.019   0.01776975  17.1404        227
 4.56   0.0000   1411.0604    350.0138     3185.631      43.5463  44.64     1.362     1.124      1.485   0.01778586  19.2920        228
 8.25   0.0000   1453.4999    391.5077     1104.467      43.5463  45.62     0.501     0.499      0.995   0.01776371  20.4421        229
 3.53   0.0000   1439.8121    619.2056     9805.513      43.5463 -60.99     1.553     1.539      0.784   0.01777378  18.0713        230
 3.50   0.0000   1393.4231    114.5192     179957.5      43.5463 -67.20     2.208     2.138      1.587   0.01778586  14.9121        231
 4.54   0.0000   1120.3519    329.9191     6986.223      43.5463  56.42     2.461     1.649      3.954   0.01777982  18.4394        232
 6.48   0.0000   1110.6660    479.0210     5168.088      43.5463   1.27     1.761     1.526      7.034   0.01778989  18.7667        233
 4.68   0.0000   1129.2065    547.2877     2137.906      43.5463  71.54     1.175     1.119      1.019   0.01778385  19.7250        234
 6.13   0.0000   1432.1282    340.5711     2149.847      43.5463  14.13     1.053     0.904      1.971   0.01778586  19.7190        235
 6.31   0.0000   1436.1823   1347.1876     1547.456      43.5463  46.94     0.750     0.568      1.109   0.01778184  20.0760        236
 3.50   0.0000   1408.2489    308.3757     9393.005      43.5463 -14.66     1.549     1.501      0.997   0.01779391  18.1180        237
 5.08   0.0000   1400.5464   1031.5115     3868.573      43.5463  39.22     1.427     1.369      1.087    0.0177758  19.0811        238
 3.50   0.0000   1388.7075   1428.5374     26328.29      43.5463  70.62     1.772     1.749      1.019   0.01777781  16.9989        239
 6.64   0.0002   1412.1656      1.3077     65.36596      43.5463 -77.75     1.080     0.410      2.999   0.01340714  23.5116        240
 4.84   0.0000   1406.4120    329.8513     2900.725      43.5463  15.98     1.142     0.958      0.872   0.01779391  19.3937        241
 4.30   0.0000   1330.4430    386.8843     2283.809      43.5463  16.06     1.156     0.951      0.927   0.01778184  19.6533        242
 4.52   0.0000   1259.4530    432.5583     5456.499      43.5463 -48.56     1.842     1.798      2.807   0.01778385  18.7077        243
 3.59   0.0000   1278.0834   1331.4264     14307.91      43.5463 -36.64     1.689     1.649      0.965   0.01778385  17.6611        244
 3.73   0.0000   1390.4573    713.3554     9690.335      43.5463  38.34     1.571     1.545      1.010   0.01778385  18.0842        245
 5.82   0.0000   1388.9025    806.6617     2347.671      43.5463  12.93     0.989     0.752      0.842   0.01777378  19.6234        246
 4.22   0.0000   1392.2563   1038.8906      7246.22      43.5463  16.23     1.460     1.440      0.902    0.0177758  18.3997        247
 3.50   0.0000   1218.8794   1194.9824     32720.47      43.5463  53.40     1.952     1.914      1.174    0.0177919  16.7630        248
 3.50   0.0000   1372.5548   1019.0366     28839.71      43.5463 -48.58     1.920     1.818      1.068    0.0177919  16.9000        249
 3.50   0.0000   1210.6853   1279.0161     28977.06      43.5463  83.11     5.652     3.435      9.234   0.01778586  16.8949        250
 3.50   0.0000   1320.0603    660.0400     80090.13      43.5463 -67.20     2.078     2.029      1.388   0.01778787  15.7911        251
 8.46   0.0000   1262.3207    216.3079     1290.049      43.5463 -45.69     0.561     0.342      1.068    0.0177758  20.2735        252
 7.40   0.0000   1379.2585    319.0047     1641.229      43.5463  -0.27     0.675     0.438      1.161   0.01779592  20.0121        253
 6.95   0.0000   1291.8110    546.1641     1181.956      43.5463 -45.23     0.757     0.568      0.834   0.01778989  20.3685        254
 8.13   0.0000   1352.4635    152.3469     2133.786      43.5463 -72.28     0.978     0.845      3.044   0.01777781  19.7271        255
 3.63   0.0000   1292.8221    412.6759     4134.773      43.5463 -24.73     1.324     1.261      0.838   0.01778787  19.0089        256
 6.90   0.0000   1346.3254    605.1124     1779.754      43.5463 -69.53     0.937     0.687      1.254   0.01777177  19.9241        257
 3.95   0.0000   1329.8258    655.8967      10313.4      43.5463  -2.69     1.799     1.727      0.928   0.01777982  18.0165        258
 3.94   0.0000   1332.9427    107.4934     3703.389      43.5463  -1.49     1.316     1.165      0.926   0.01777378  19.1285        259
 3.50   0.0000   1298.3925    724.9255     358158.9      43.5463 -52.23     2.372     2.270      1.701   0.01779391  14.1648        260
 4.02   0.0000   1304.6865    892.9958     2979.672      43.5463 -76.52     1.296     1.169      0.782   0.01778385  19.3646        261
 3.89   0.0000   1319.2695    264.1481     3264.334      43.5463   7.88     1.176     1.120      0.909   0.01777781  19.2655        262
 4.19   0.0000   1307.5225    669.7191     9254.046      43.5463 -50.89     1.592     1.575      0.995   0.01777982  18.1342        263
 3.59   0.0000   1272.7434    610.0253     32344.19      43.5463 -57.80     4.137     2.553      6.217   0.01778989  16.7755        264
 5.97   0.0000   1299.1758     54.0958      1798.67      43.5463 -43.69     0.828     0.676      0.904   0.01778184  19.9126        265
 3.50   0.0000   1291.3833    762.2225     22042.86      43.5463 -25.39     2.258     1.792      1.209   0.01778184  17.1918        266
 3.50   0.0000   1265.4619    807.9507     11120.01      43.5463 -30.51     1.645     1.596      0.975   0.01778184  17.9347        267
 5.79   0.0000   1293.5248    742.2045     4371.834      43.5463  -4.43     1.542     1.369      1.022   0.01779592  18.9483        268
 6.79   0.0000   1273.5171    697.9951     1359.267      43.5463  89.49     0.823     0.701      1.311   0.01778385  20.2167        269
 4.93   0.0000   1228.6475   1153.6614     1654.114      43.5463  44.30     0.997     0.870      0.937   0.01777982  20.0036        270
 5.25   0.0000   1262.1740    855.1698     2089.746      43.5463 -45.68     0.891     0.860      1.005   0.01778586  19.7498        271
 3.50   0.0000   1214.6323    513.0753     49721.24      43.5463 -14.07     1.919     1.891      1.235   0.01778184  16.3086        272
 3.96   0.0000   1237.0515   1553.6429     5938.604      43.5463 -66.85     1.468     1.444      0.931   0.01778787  18.6158        273
 6.19   0.0000   1229.7683    599.1210     2590.628      43.5463 -25.30     1.417     1.266      1.594   0.01778184  19.5165        274
 3.50   0.0000   1234.4177    304.8783     9365.236      43.5463  -6.79     1.613     1.551      0.958    0.0177919  18.1212        275
 5.08   0.0000   1237.6338     48.3471     1835.333      43.5463  43.28     1.036     0.959      0.988    0.0177919  19.8907        276
 6.91   0.0000   1204.2040   1217.4023     841.4894      43.5463  71.26     0.742     0.453      0.996   0.01778184  20.7374        277
 5.67   0.0000   1212.7019   1429.5331     5189.702      43.5463  69.15     2.054     1.789      6.032   0.01778184  18.7621        278
 4.02   0.0000   1200.8488   1442.2327     3970.528      43.5463 -76.12     1.572     1.483      1.564    0.0177919  19.0529        279
 4.18   0.0000   1207.6141    838.9321     6163.073      43.5463 -17.13     1.467     1.426      0.890   0.01779391  18.5755        280
 5.00   0.0000   1194.9594    124.1157     5328.431      43.5463 -81.32     1.958     1.640      2.306   0.01778385  18.7335        281
 3.80   0.0000   1201.9172    339.1206     5981.018      43.5463  43.10     1.498     1.455      0.732    0.0177758  18.6081        282
 4.92   0.0000   1130.2356    219.7730     2184.966      43.5463 -10.18     1.218     1.127      1.149   0.01778989  19.7014        283
 3.50   0.0000   1138.5403    148.1239     85049.07      43.5463 -74.17     2.078     2.043      1.385   0.01777982  15.7258        284
 5.84   0.0000   1181.8572    176.1720     1952.826      43.5463  42.81     0.901     0.856      0.897    0.0177919  19.8233        285
 5.01   0.0000   1180.9396    549.3316     2402.255      43.5463  63.60     1.141     1.029      0.922   0.01777781  19.5985        286
 4.39   0.0000   1153.5300   1353.1674     3207.408      43.5463  13.79     1.506     1.347      1.267   0.01778586  19.2846        287
 3.50   0.0000   1165.1499   1299.8224     123071.7      43.5463 -75.74     2.142     2.082      1.421    0.0177919  15.3246        288
 3.50   0.0000   1130.0022    183.5886     52002.77      43.5463 -33.06     1.954     1.929      1.248   0.01777982  16.2599        289
 3.50   0.0000   1157.8748    236.4912     18837.07      43.5463 -42.72     1.764     1.750      0.968   0.01777378  17.3625        290
 5.10   0.0000   1161.8063    887.7887     2118.558      43.5463  84.17     1.165     1.128      0.999    0.0177758  19.7349        291
 3.94   0.0000   1151.2523     99.4780     4699.458      43.5463   0.03     1.470     1.407      0.984    0.0177758  18.8699        292
 6.52   0.0000   1131.0277    359.2787     1478.822      43.5463  81.37     0.729     0.679      0.937   0.01778184  20.1252        293
 7.49   0.0000   1086.2960   1452.9686     1149.345      43.5463  -2.22     0.739     0.684      1.524   0.01777378  20.3989        294
 3.90   0.0000   1095.4277   1526.6780     3154.904      43.5463  63.44     1.318     1.254      0.990   0.01778385  19.3025        295
 7.28   0.0000   1090.2825    783.0780     64605.33      43.5463  44.32     1.415     0.516      3.482    0.0177758  16.0243        296
 3.50   0.0000   1079.9761    512.1813     87805.64      43.5463 -43.96     2.092     2.065      1.421   0.01778586  15.6912        297
 5.73   0.0000   1094.6826   1136.2802     1061.676      43.5463  44.82     0.932     0.755      0.961    0.0177758  20.4850        298
 7.58   0.0000    982.2479   1486.9852     736.3014      43.5463   0.75     0.683     0.432      0.960   0.01778989  20.8824        299
 8.90   0.0000   1088.4893    397.4680     973.3657      43.5463  50.26     0.502     0.497      1.693    0.0177758  20.5793        300
 5.96   0.0000   1065.3254   1563.1619     3293.304      43.5463 -58.63     1.805     1.363      5.138   0.01778385  19.2559        301
 3.50   0.0000    984.9092    558.5052     78326.09      43.5463 -62.58     2.059     2.017      1.347   0.01776774  15.8152        302
 3.50   0.0000   1009.8051    813.7728      53314.6      43.5463 -49.24     1.950     1.934      1.236   0.01778586  16.2329        303
 7.09   0.0000    978.4369    452.7353      1579.03      43.5463 -88.40     0.993     0.959      1.017   0.01778787  20.0540        304
 5.38   0.0000    980.8336    797.9319       2899.2      43.5463 -89.10     1.448     1.289      1.416   0.01778787  19.3943        305
 3.50   0.0000   1040.2742    633.1237       103748      43.5463 -73.45     2.131     2.083      1.415    0.0177758  15.5100        306
 3.50   0.0000   1038.7018    525.4651     27306.64      43.5463 -66.52     1.860     1.813      1.045   0.01778184  16.9593        307
 4.55   0.0000   1030.4423    302.6757     5310.042      43.5463  64.08     2.394     1.661      3.862   0.01778184  18.7373        308
 5.70   0.0000    986.7168    454.0870     3477.804      43.5463  64.37     1.736     1.543      1.794   0.01777378  19.1967        309
 8.63   0.0000   1014.5037    453.4631     1161.258      43.5463 -59.83     0.501     0.498      1.058    0.0177758  20.3877        310
 6.24   0.0000    998.0503    233.3297     1763.644      43.5463  84.06     0.736     0.665      1.086    0.0177758  19.9340        311
 3.50   0.0000   1025.7133   1380.0258     58107.87      43.5463 -81.64     2.027     1.933      1.302   0.01778586  16.1394        312
 3.71   0.0000   1011.3628    344.7765     8049.124      43.5463 -46.20     1.590     1.544      0.978   0.01778787  18.2856        313
 8.15   0.0000   1011.2456    267.9750     1292.441      43.5463   1.18     0.695     0.430      1.356   0.01779391  20.2715        314
 4.10   0.0000    999.9547   1273.7301     2886.494      43.5463 -24.21     1.320     1.164      0.825   0.01777982  19.3991        315
 4.00   0.0000   1001.6890    542.7207     8531.609      43.5463  11.48     1.644     1.579      1.002   0.01777378  18.2224        316
