#   1 KRON_RADIUS            Kron apertures in units of A or B                         
#   2 MAGERR_APER            RMS error vector for fixed aperture mag.                   [mag]
#   3 Y_IMAGE                Object position along y                                    [pixel]
#   4 X_IMAGE                Object position along x                                    [pixel]
#   5 THETA_IMAGE            Position angle (CCW/x)                                     [deg]
#   6 FLUX_APER              Flux vector within fixed circular aperture(s)              [count]
#   7 A_IMAGE                Profile RMS along major axis                               [pixel]
#   8 THRESHOLD              Detection threshold above background                       [count]
#   9 B_IMAGE                Profile RMS along minor axis                               [pixel]
#  10 FLUX_RADIUS            Fraction-of-light radii                                    [pixel]
#  11 FLUXERR_APER           RMS error vector for aperture flux(es)                     [count]
#  12 MAG_APER               Fixed aperture magnitude vector                            [mag]
#  13 NUMBER                 Running object number                                     
 3.50   0.0000     52.4330     61.7851  -1.53     27974.71     6.647           15     6.022      8.355  0.001410473  16.9331          1
 3.50   0.0000     58.9505   1076.9386  81.87      39826.7     2.119           15     1.993      1.490  0.001409995  16.5496          2
 3.50   0.0000     15.7535    983.4631 -88.04     4454.577     4.568           15     2.012      5.208  0.001409835  18.9280          3
 3.50   0.0000     16.2663    382.9737 -60.13     358.5968     1.470           15     1.238      1.195  0.001410473  21.6635          4
 3.50   0.0000     17.0164     89.4733 -38.81     4216.073     1.668           15     1.628      0.989  0.001411271  18.9877          5
 3.50   0.0000     13.8116   1444.2358 -43.73     11056.44     1.732           15     1.705      1.273  0.001410633  17.9410          6
 4.25   0.0000     13.2794    839.4593 -64.29     145.1285     1.755           15     1.135      3.122  0.001409835  22.6456          7
 3.50   0.0000      9.1434   1182.2228 -58.17     164.5337     1.088           15     1.052      1.290  0.001410952  22.5094          8
 3.50   0.0000      5.7230   1467.8273  -3.91     63.66346     1.183           15     0.926      2.013  0.001341284  23.5403          9
 4.00   0.0000      3.6141    143.2476  67.80     142.9064     1.689           15     1.561      1.985  0.001226654  22.6624         10
 5.03   0.0000      3.6377    183.7684 -16.02     43.52863     1.193           15     0.959      2.812  0.001228304  23.9531         11
 6.83   0.0001      2.4338    843.2668  19.71     18.22458     0.732           15     0.456      2.028  0.001147601  24.8984         12
 6.06   0.0001      1.8042    302.4686   3.74     13.28606     0.943           15     0.716      3.603  0.001101574  25.2415         13
 3.78   0.0000     23.8595    365.4591   4.31     803.2453     1.406           15     1.341      0.900  0.001409675  20.7879         14
 3.50   0.0000     23.0221    381.4540  24.11     237.9951     1.355           15     1.214      1.334  0.001410952  22.1086         15
 3.50   0.0000     17.3073   1213.4205  41.48     74.82295     0.956           15     0.859      0.984  0.001409995  23.3649         16
 3.50   0.0000     14.7703   1561.4890  -0.83     95.11745     0.945           15     0.720      1.265  0.001409835  23.1043         17
 5.13   0.0000     15.4900    192.9881  -3.42      50.4948     0.788           15     0.499      1.403  0.001410154  23.7919         18
 3.50   0.0000     33.1031   1108.5421  62.13     370.8696     2.061           15     1.306      2.858  0.001409196  21.6269         19
 5.07   0.0000     22.8381    696.7360  14.91     123.3159     0.927           15     0.843      1.287  0.001410314  22.8225         20
 5.64   0.0000     20.9432    212.0454 -45.15     40.09127     0.892           15     0.530      1.398  0.001410154  24.0424         21
 4.02   0.0000     24.2986   1451.6597 -46.75     53.40834     1.018           15     0.855      1.180  0.001409196  23.7310         22
 4.67   0.0000     32.4480    325.0097 -26.15     236.2447     1.563           15     1.264      1.998  0.001410952  22.1166         23
 6.92   0.0000     24.8343    529.8266  45.19     57.14704     0.759           15     0.567      1.418  0.001410473  23.6575         24
 6.71   0.0000     25.9111    701.3083  17.52     62.95041     0.916           15     0.682      2.976  0.001409037  23.5525         25
 5.31   0.0000     33.6394     14.6521  53.71     104.5491     0.979           15     0.853      1.355  0.001410473  23.0017         26
 3.50   0.0000     37.0468   1519.9733 -74.83     226.0977     1.084           15     1.067      1.322  0.001410952  22.1643         27
 4.62   0.0000     43.2929    438.5793 -53.91     212.8022     1.729           15     1.304      2.607  0.001409995  22.2301         28
 3.50   0.0000     38.0196   1169.1295  12.61     198.0202     1.289           15     1.179      1.341  0.001411111  22.3082         29
 3.50   0.0000     79.0623    535.8591 -63.07     35687.62     1.999           15     1.965      1.486  0.001409675  16.6687         30
 3.80   0.0000     41.4935    913.7980 -64.45     236.5097     1.227           15     1.051      1.156  0.001409835  22.1154         31
 7.06   0.0000     33.9667   1066.4921  58.09     39.47933     0.803           15     0.311      1.817  0.001409516  24.0591         32
 3.50   0.0000     38.6000   1224.6489 -30.78     95.64603     1.228           15     0.776      1.154  0.001411271  23.0983         33
 3.98   0.0000     49.4767    263.4285 -82.12     151.0495     1.552           15     1.130      1.959  0.001410154  22.6022         34
 4.64   0.0000     42.6057    226.7916  40.20     46.23542     1.079           15     0.654      1.424  0.001409995  23.8876         35
 6.74   0.0001     39.4747   1126.5171 -43.85     16.59248     0.504           15     0.495      1.548  0.001409356  25.0002         36
 3.79   0.0000     41.4937   1000.3300  -1.36      44.3103     1.054           15     0.499      1.137  0.001409516  23.9337         37
 3.50   0.0000     46.5432   1429.2083  87.55     63.67684     0.923           15     0.722      1.268   0.00141143  23.5400         38
 6.67   0.0000     45.7285    473.0389 -10.42     46.22233     0.733           15     0.681      2.201  0.001410314  23.8879         39
 3.50   0.0000     49.4534   1433.9270   9.10     216.1707     1.096           15     0.936      1.275  0.001409675  22.2130         40
 5.18   0.0000     46.8039    664.5821  -3.69     114.7764     0.953           15     0.724      2.637  0.001409835  22.9004         41
 6.15   0.0000     50.2181    119.8695  39.13     96.35544     0.807           15     0.669      1.873  0.001410952  23.0903         42
 8.27   0.0000     49.3352    879.6919  46.34     84.62798     0.567           15     0.339      2.040  0.001409995  23.2312         43
 3.50   0.0000     74.1091    126.4795 -33.04     1749.683     1.503           15     1.437      1.074  0.001409356  19.9426         44
 5.86   0.0000     58.9934    469.1689  53.55     60.62814     0.918           15     0.474      1.775  0.001410473  23.5933         45
 3.50   0.0000     65.0521   1146.3165  -0.29     126.3115     1.444           15     1.193      1.602  0.001409356  22.7964         46
 5.64   0.0001     57.5757   1240.1871 -21.10     28.86333     0.749           15     0.444      1.303  0.001410154  24.3991         47
 4.17   0.0000     65.6561   1514.5503 -81.65     35.55384     0.917           15     0.484      1.218  0.001410154  24.1728         48
 4.99   0.0000     66.6765   1414.3184 -42.10       35.443     1.020           15     0.862      1.741  0.001409835  24.1762         49
 7.28   0.0000     68.4343     17.8153  78.11     117.4115     1.055           15     0.885      4.037  0.001410473  22.8757         50
 3.50   0.0000     70.9527   1320.7626 -65.92     71.41626     1.010           15     0.818      1.175  0.001410633  23.4155         51
 8.63   0.0000     75.6857     80.4453 -38.45     197.5805     1.551           15     0.939      9.111  0.001409995  22.3106         52
 3.50   0.0000    120.9301    787.4855 -53.39     53124.23     2.055           15     2.021      1.511  0.001409196  16.2368         53
 3.50   0.0000     81.3387    419.7172 -81.40     316.4427     1.587           15     1.314      1.504  0.001409516  21.7993         54
 3.84   0.0000     89.6813    375.3947 -15.16     665.6227     2.397           15     2.065      3.593  0.001410473  20.9919         55
 7.72   0.0000     73.9792    732.2733  88.65     63.07555     0.662           15     0.446      2.256  0.001411111  23.5503         56
 3.50   0.0000     95.5787     54.3880  31.88     2567.758     1.639           15     1.612      0.944  0.001410154  19.5261         57
 3.50   0.0000     78.5913   1031.9655  -4.49     56.10441     1.095           15     0.928      1.053  0.001410633  23.6775         58
 7.43   0.0000     73.6413   1255.6760 -46.35     47.21249     0.584           15     0.329      1.437  0.001409995  23.8649         59
 6.48   0.0000     82.9982    930.8804  35.38     116.2558     1.250           15     0.967      2.569  0.001410473  22.8865         60
 5.35   0.0000     87.5067    757.2294  64.46     180.8687     1.285           15     1.195      1.679  0.001409835  22.4066         61
 3.79   0.0000     86.9773   1358.2859 -79.17     89.71198     1.119           15     0.894      1.447  0.001410314  23.1679         62
 6.23   0.0000     86.7000    862.2626 -36.18     109.5264     1.407           15     0.998      2.076  0.001409516  22.9512         63
 5.33   0.0000    141.2934    884.3462  52.27     141.0568     2.182           15     1.014      4.060  0.001409516  22.6765         64
 5.03   0.0000     90.7042   1043.9059  53.72     61.29022     1.594           15     0.914      1.466  0.001408717  23.5815         65
 3.50   0.0000     90.6289    494.1025 -78.53     234.1405     1.205           15     1.125      0.929  0.001409356  22.1263         66
 6.27   0.0000     87.7103    810.8326 -66.09     61.58473     0.934           15     0.667      2.474  0.001409835  23.5763         67
 6.08   0.0000     85.0338   1559.0720  45.28     49.95813     0.911           15     0.525      1.779  0.001410314  23.8035         68
 6.91   0.0000     85.7778    923.1917 -46.11     69.82076     0.760           15     0.561      2.028  0.001410154  23.4400         69
 3.79   0.0000     97.1720    451.1183 -15.24      469.882     2.158           15     1.288      2.438  0.001410314  21.3700         70
 3.75   0.0000     94.2044    387.5457   0.79     111.6973     0.925           15     0.726      1.299   0.00141143  22.9299         71
 5.99   0.0000     95.9941    559.7446 -89.68     65.15583     0.676           15     0.436      1.441   0.00141159  23.5151         72
 7.61   0.0000     93.6627    870.6544 -44.67     54.29582     0.584           15     0.329      1.524  0.001409835  23.7131         73
 5.82   0.0000    101.7271    517.3472  34.32     91.21638     1.114           15     0.881      1.940  0.001409675  23.1498         74
 4.54   0.0000    107.3400    861.3597  41.72     93.78168     0.978           15     0.859      0.960  0.001410473  23.1197         75
 4.59   0.0000    114.3043    414.1663 -68.21     134.9355     1.226           15     1.013      1.272  0.001409356  22.7247         76
 5.58   0.0000    106.9801   1420.9814 -40.64     55.20346     0.798           15     0.763      1.474  0.001410314  23.6951         77
 6.57   0.0000    106.4793    180.0427  -2.31     64.84893     0.780           15     0.499      1.384  0.001409835  23.5202         78
 3.51   0.0000    109.9083   1513.3596  20.21     40.00792     0.884           15     0.681      1.052  0.001409196  24.0446         79
 3.50   0.0000    116.1240    989.4617 -58.20     80.48284     1.138           15     1.019      1.482  0.001409516  23.2857         80
 4.21   0.0000    116.2476     65.0520  14.02     178.9791     1.548           15     1.061      1.367  0.001410633  22.4180         81
 3.50   0.0000    116.7219    152.4536 -86.25     133.2595     1.123           15     0.971      1.007  0.001409516  22.7383         82
 4.01   0.0000    117.6549    911.8856 -66.63     78.97981     0.935           15     0.682      1.969  0.001409675  23.3062         83
 3.64   0.0000    125.2984    492.6189  -0.32     142.2798     1.665           15     1.219      2.109  0.001409675  22.6671         84
 3.50   0.0000    161.4541   1466.8248 -58.74     32927.48     1.941           15     1.902      1.474  0.001411111  16.7561         85
 7.32   0.0001    118.4848   1400.5156 -45.05     24.07016     0.503           15     0.497      1.567  0.001408877  24.5963         86
 4.30   0.0000    130.2065    416.2744  57.73     151.3878     1.100           15     1.057      1.044  0.001411111  22.5998         87
 3.50   0.0000    127.2841   1476.9161  64.33      63.8269     0.882           15     0.673      1.131  0.001409196  23.5375         88
 3.66   0.0000    128.3044    884.3072  39.90     110.3274     0.974           15     0.855      1.401  0.001408877  22.9433         89
 8.22   0.0000    129.4937    461.4671  79.24     47.24627     0.500           15     0.499      1.920  0.001409516  23.8641         90
 7.97   0.0000    134.2148     97.6237 -71.27     42.14458     0.773           15     0.439      1.419  0.001409995  23.9881         91
 6.93   0.0001    134.2994   1274.6626  43.05     28.12491     0.564           15     0.340      1.557  0.001409675  24.4273         92
 5.52 3862.9807    138.1961   1599.6533 -73.31        3e-07     0.751           15     0.443      3.044  0.001067122  44.3572         93
 3.50   0.0000    169.2865    875.6407 -68.74     9927.313     1.816           15     1.770      1.143  0.001409995  18.0579         94
 3.50   0.0000    150.7619   1278.9016  88.63     198.0506     1.163           15     1.081      1.357  0.001408877  22.3081         95
 3.72   0.0000    164.2101   1444.3116  58.08     682.5138     1.478           15     1.334      1.262  0.001410314  20.9647         96
 3.50   0.0000    154.5426     80.6307 -48.09     139.5305     1.063           15     0.915      1.078  0.001410792  22.6883         97
 4.37   0.0000    155.2148   1578.5200  33.04     73.89584     0.963           15     0.777      1.170  0.001410792  23.3784         98
 4.42   0.0000    164.9884    574.8645  77.32     120.7314     1.398           15     1.054      1.595  0.001411111  22.8454         99
 5.40   0.0000    154.6382    822.7685 -65.92     35.63378     0.715           15     0.649      1.502  0.001410633  24.1703        100
 3.50   0.0000    165.7110    102.5932 -26.53     586.6597     1.316           15     1.213      1.010  0.001409835  21.1290        101
 6.06   0.0000    159.1147    491.3987   9.60     70.31934     1.137           15     0.669      2.534  0.001410154  23.4323        102
 3.98   0.0000    168.5005   1367.4280  -3.63     173.4819     1.273           15     1.097      1.257  0.001409356  22.4519        103
 4.33   0.0000    167.9214    649.5801  10.30     128.6982     1.346           15     1.111      1.266  0.001410473  22.7761        104
 3.88   0.0000    179.2475    573.4441  24.34     360.0674     1.806           15     1.458      2.086  0.001410633  21.6590        105
 7.05   0.0000    168.5139    168.5129  44.91     63.17926     0.504           15     0.496      1.727  0.001409196  23.5486        106
 7.80   0.0000    172.5058     30.4449  54.32     41.92658     0.503           15     0.494      1.737  0.001409196  23.9938        107
 3.50   0.0000    258.9322    995.8043 -40.78      86268.3     2.197           15     2.091      1.570  0.001411111  15.7104        108
 3.68   0.0000    191.7790   1349.0507 -29.04     910.6205     1.434           15     1.382      1.264  0.001410633  20.6517        109
 4.98   0.0000    185.8884   1353.4352 -60.76      288.894     1.564           15     1.434      1.421  0.001409995  21.8982        110
 6.84   0.0000    182.3312     58.4811 -53.73     88.22539     0.998           15     0.697      2.052  0.001409675  23.1860        111
 6.21   0.0000    186.4667    834.7823 -22.86     61.74221     1.172           15     0.796      2.659  0.001410633  23.5735        112
 3.50   0.0000    209.8897    826.0682  -8.26     3043.324     5.062           15     2.311      6.545  0.001409516  19.3416        113
 7.38   0.0000    183.4921    493.5126  45.65     51.61012     0.502           15     0.498      1.551  0.001409037  23.7682        114
 3.62   0.0000    229.0160    560.6641 -22.76     2783.594     4.037           15     3.709      7.024  0.001410473  19.4385        115
 3.50   0.0000    205.7506    547.4508  51.32      1810.05     1.491           15     1.485      0.944  0.001410952  19.9058        116
 3.50   0.0000    264.9563     65.7550 -47.06     65206.04     2.161           15     2.086      1.535  0.001410792  16.0143        117
 5.54   0.0000    194.7835    447.7415 -54.85     120.5159     1.067           15     0.894      1.243  0.001410473  22.8474        118
 3.50   0.0000    211.4027   1304.6294 -28.12     1704.765     1.498           15     1.454      1.082  0.001409995  19.9708        119
 3.88   0.0000    209.9436    683.1042 -79.14     426.9042     1.698           15     1.384      1.532  0.001409196  21.4742        120
 6.49   0.0000    204.5183    935.3228 -12.20     89.47326     1.134           15     0.832      1.617  0.001409835  23.1708        121
 3.66   0.0000    204.7073    182.1929 -25.95     97.62211     1.088           15     0.881      1.553  0.001409995  23.0761        122
 5.02   0.0000    205.1469    940.4786   2.45     111.1056     0.957           15     0.726      1.018  0.001409516  22.9357        123
 3.50   0.0000    223.2675   1224.6123  77.27     2077.342     1.482           15     1.452      1.057  0.001411111  19.7562        124
 3.50   0.0000    208.2826   1224.1099  -9.72     133.9533     1.086           15     0.922      1.199  0.001409516  22.7326        125
 5.60   0.0000    216.7452    881.1793 -58.27     91.00408     1.992           15     0.918      3.153  0.001410792  23.1523        126
 4.87   0.0000    216.7865    739.7549 -45.18     193.5553     1.731           15     1.248      2.843  0.001410473  22.3330        127
 3.50   0.0000    221.6765    773.3259 -20.01     667.8486     1.345           15     1.265      1.038  0.001409516  20.9883        128
 6.22   0.0000    214.2040    791.6286 -30.93      74.0823     1.057           15     0.805      1.741  0.001410154  23.3757        129
 3.71   0.0000    243.0105    111.1027 -86.87      1113.36     2.419           15     1.752      2.296  0.001409675  20.4334        130
 3.83   0.0000    254.5513    611.2030 -40.46     2890.822     2.890           15     2.353      2.334  0.001411111  19.3974        131
 5.94   0.0000    229.3252    546.4078 -52.26     137.3571     1.514           15     1.120      2.363  0.001410952  22.7054        132
 7.38   0.0000    220.5160   1401.4563  63.36     47.77586     0.500           15     0.498      1.804  0.001409516  23.8520        133
 3.50   0.0000    238.3811    837.2602  -1.16     361.1116     1.874           15     1.611      1.673  0.001410473  21.6559        134
 3.50   0.0000    231.9676   1551.6797 -22.09     71.71103     0.883           15     0.678      1.097  0.001409995  23.4110        135
 3.88   0.0000    238.9686   1477.4473 -68.21     78.73189     1.283           15     0.919      1.344  0.001410952  23.3096        136
 4.96   0.0000    249.4536    105.7775 -19.28     303.5542     1.432           15     1.278      1.148  0.001410952  21.8444        137
 4.78   0.0000    247.8289   1412.9543  45.09     86.18565     1.290           15     1.085      1.707  0.001410952  23.2114        138
 4.45   0.0000    248.6849    149.8071 -32.28     89.37357     0.992           15     0.922      1.185  0.001410154  23.1720        139
 3.66   0.0000    250.4527   1549.4178  83.80     105.3174     1.043           15     1.025      1.573  0.001410792  22.9937        140
 3.89   0.0000    247.9675    561.0492 -36.33     127.7882     0.788           15     0.758      1.018  0.001410792  22.7838        141
 3.50   0.0000    286.7185   1484.9955 -50.47     19669.17     1.884           15     1.854      1.386  0.001410314  17.3155        142
 5.26   0.0000    252.2202    693.4165  70.77     66.55015     0.739           15     0.454      1.393  0.001410314  23.4921        143
 6.42   0.0000    263.9649    723.0098 -83.33     141.1885     1.516           15     1.127      4.188  0.001410473  22.6755        144
 3.50   0.0000    281.0552   1520.9050  81.15     4815.296     1.663           15     1.589      1.214  0.001409356  18.8434        145
 3.86   0.0000    270.0475   1272.1318  15.61     331.9873     1.537           15     1.399      1.385  0.001409995  21.7472        146
 5.39   0.0000    261.1553   1207.8533 -41.82     57.23755     0.752           15     0.567      1.199  0.001410314  23.6558        147
 5.02   0.0000    264.4726    122.0912  11.32     168.4367     1.190           15     1.003      1.181  0.001409516  22.4839        148
 3.50   0.0000    302.1516    199.9386 -74.69     15669.89     1.842           15     1.825      1.282  0.001409835  17.5623        149
 3.50   0.0000    270.4892   1248.9794  87.18     39.99169     0.779           15     0.695      1.191  0.001409995  24.0451        150
 7.67   0.0000    272.1040    724.8116 -49.42     83.45275     0.771           15     0.566      2.101  0.001409835  23.2464        151
 5.30   0.0000    278.5140    555.5240  -1.69     71.82593     0.949           15     0.878      1.841  0.001409196  23.4093        152
 3.87   0.0000    292.5160   1474.2141 -30.72     646.6346     1.605           15     1.442      1.331  0.001410473  21.0234        153
 3.85   0.0000    291.3944    246.6814 -43.05     150.7352     1.412           15     1.094      1.266  0.001410473  22.6045        154
 3.50   0.0000    301.2967    561.9062  72.44     844.8826     1.461           15     1.411      1.156  0.001409037  20.7330        155
 4.97   0.0000    307.7422     83.5914  75.44     284.8201     2.123           15     1.426      2.555   0.00141143  21.9136        156
 6.15   0.0001    290.1804      4.6054 -71.51     17.10923     0.728           15     0.454      1.585  0.001284897  24.9669        157
 3.50   0.0000    321.1690    695.6151 -34.71     11341.73     1.736           15     1.733      1.125  0.001410792  17.9133        158
 9.06   0.0000    291.5226    780.4788  44.85     100.8817     0.505           15     0.494      2.044  0.001409835  23.0405        159
 7.13   0.0000    291.6668    263.3293  45.17     35.87813     0.576           15     0.334      1.359  0.001409356  24.1629        160
 3.50   0.0000    320.7332    639.8378 -62.89     658.9546     2.540           15     1.728      3.138  0.001410314  21.0029        161
 3.85   0.0000    326.5693    593.7131   9.39     1476.025     2.153           15     2.097      1.281  0.001410314  20.1273        162
 6.58   0.0000    310.3900    315.6748  72.63     189.4132     1.427           15     0.934      4.903  0.001411111  22.3565        163
 4.14   0.0000    315.9833    225.2863  -6.62     216.5811     1.330           15     0.991      1.500  0.001410314  22.2109        164
 3.50   0.0001    312.8518   1494.8325  39.69     24.64336     0.738           15     0.561      1.146  0.001410792  24.5707        165
 8.15   0.0000    313.3218    152.6642  44.36     39.72146     0.573           15     0.335      2.391  0.001409356  24.0524        166
 6.30   0.0000    315.3415     14.2786 -48.58     52.04821     0.556           15     0.342      1.935  0.001409835  23.7590        167
 3.63   0.0000    328.4418   1544.6156 -37.02     346.8696     1.211           15     1.128      1.100  0.001410633  21.6996        168
 5.62   0.0000    320.6384    574.5311   7.47     62.27179     0.998           15     0.630      1.635  0.001410314  23.5643        169
 3.50   0.0000    331.3190     91.5485 -34.79     425.9005     1.266           15     1.220      1.058  0.001409516  21.4767        170
 5.74   0.0000    328.1288    242.2959 -59.72     76.59337     0.867           15     0.594      1.649  0.001409516  23.3395        171
 6.17   0.0000    335.5205    609.4713  -0.23     63.68449     0.942           15     0.881      2.149  0.001409516  23.5399        172
 3.51   0.0000    349.0352     52.9466 -66.01     961.0113     1.419           15     1.370      1.078  0.001410314  20.5932        173
 4.95   0.0000    335.0284    621.9882  75.78      63.0377     0.805           15     0.785      1.458  0.001410633  23.5510        174
 3.50   0.0000    367.2340    759.5012  -5.27     11394.62     1.798           15     1.758      1.165  0.001408717  17.9082        175
 3.50   0.0000    340.1329   1502.1545 -46.17     55.16203     0.819           15     0.661      1.292  0.001410154  23.6959        176
 4.73   0.0000    347.0912     40.8081 -59.41      137.232     1.156           15     1.027      1.260  0.001409835  22.7064        177
 3.50   0.0000    394.2318    229.6257 -54.48     39785.49     2.050           15     1.972      1.473  0.001409995  16.5507        178
 3.50   0.0000    360.3794   1498.8564 -12.11     1923.318     1.714           15     1.460      1.136  0.001410792  19.8399        179
 3.85   0.0000    374.2936    752.1292  57.43     374.1976     2.573           15     1.490      2.522  0.001409516  21.6172        180
 5.06   0.0000    352.5029   1578.9875 -62.41     83.81194     1.057           15     0.655      2.040  0.001409675  23.2417        181
 3.50   0.0000    359.6951   1032.4893 -13.02     455.3343     1.260           15     1.219      1.023  0.001408877  21.4042        182
 5.90   0.0000    358.6621   1046.3116 -45.38     60.64579     1.169           15     0.570      2.170  0.001409516  23.5930        183
 5.26   0.0000    368.4125    208.4630 -52.86      143.592     1.392           15     1.114      1.331  0.001410792  22.6572        184
 3.50   0.0000    372.3954   1082.2760   7.02     345.8509     1.626           15     1.462      1.730  0.001410792  21.7028        185
 3.71   0.0000    369.4850     69.7813 -43.69      220.528     1.452           15     1.283      1.122  0.001410473  22.1913        186
 6.25   0.0000    361.8470     14.8623  45.73      62.4399     0.748           15     0.571      1.945  0.001409835  23.5613        187
 3.50   0.0000    396.2114   1459.7427 -51.44     7937.318     1.708           15     1.661      1.210  0.001410952  18.3008        188
 3.50   0.0000    374.2860     85.5446 -72.70     206.7688     1.103           15     1.034      1.111  0.001409675  22.2613        189
 3.50   0.0000    397.1684    352.8747 -53.60     8992.457     1.767           15     1.699      1.189  0.001409995  18.1653        190
 3.50   0.0000    390.9100     93.7870 -35.21     153.5963     1.205           15     1.022      1.356  0.001410154  22.5840        191
 4.46   0.0000    381.4601     65.5889  37.25     237.4271     1.439           15     1.201      1.222  0.001411111  22.1112        192
 6.90   0.0000    381.7107      9.4692  34.94     197.6937     1.385           15     1.308      6.883  0.001409196  22.3100        193
 4.46   0.0000    379.1584    123.8874  45.20     290.7961     1.189           15     1.142      1.156  0.001409835  21.8910        194
 3.84   0.0000    395.5988    625.2861 -85.56     576.8478     2.336           15     1.898      4.404  0.001409995  21.1473        195
 7.83   0.0000    377.1904    139.6098 -71.65     124.5959     0.745           15     0.451      1.722  0.001409675  22.8112        196
 3.50   0.0000    392.8825   1087.1373  27.17     1861.167     1.484           15     1.464      1.094  0.001409516  19.8755        197
 3.50   0.0000    388.0514   1193.9818 -63.50     181.9102     1.105           15     1.083      1.266  0.001410633  22.4004        198
 6.96   0.0000    382.6901    248.5648  29.99     85.54588     0.952           15     0.535      1.789  0.001409675  23.2195        199
 7.15   0.0001    381.4868   1483.5352 -46.53     23.18922     0.509           15     0.489      1.584  0.001409516  24.6368        200
 3.72   0.0000    388.7853    259.2869  82.09     144.6357     1.047           15     0.950      0.954  0.001410154  22.6493        201
 5.40   0.0000    402.7172    524.9601  63.32     253.0318     2.147           15     1.291      2.608  0.001410154  22.0421        202
 3.50   0.0000    436.9847    250.2869  80.48     17247.89     1.880           15     1.858      1.253  0.001410154  17.4582        203
 3.50   0.8334    389.8449   1166.6427 -22.22   0.00183849     0.858           15     0.687      1.630  0.001410792  34.8888        204
 6.33   0.0000    411.2217      2.0090 -89.01     151.8706     2.935           15     0.925      4.550  0.001116993  22.5963        205
 7.44   0.0000    393.3539    144.1269 -69.60     59.39032     0.947           15     0.685      2.493  0.001409675  23.6157        206
 4.91   0.0000    391.8285    682.1618  45.39     94.02058     0.805           15     0.665      1.076  0.001410633  23.1169        207
 5.27   0.0000    390.4884   1063.9827  -1.27      32.5492     0.773           15     0.500      1.615  0.001409995  24.2686        208
 3.50   0.0000    460.3274    806.0079 -43.01     98701.05     2.213           15     2.103      1.631  0.001410792  15.5642        209
 3.50   0.0000    412.5606   1560.8337 -63.29     206.4387     1.820           15     0.996      2.335  0.001410792  22.2630        210
 5.67   0.0000    420.6196    132.7295 -31.62     403.5915     3.012           15     2.100      8.226  0.001411111  21.5351        211
 3.50   0.0000    406.1489    280.5368 -33.78     221.0851     1.222           15     1.041      1.007  0.001409995  22.1886        212
 3.58   0.0000    414.0773    557.5623  76.11     204.8844     1.733           15     1.474      2.776  0.001409995  22.2712        213
 4.17   0.0000    419.8095    157.4447  27.89      693.617     2.027           15     1.739      1.918  0.001410633  20.9472        214
 3.50   0.0000    417.8195   1203.0179 -80.77     156.9264     1.233           15     1.166      1.516  0.001410314  22.5608        215
 3.50   0.0000    418.4508    772.9764 -80.68     147.8487     1.319           15     1.181      1.219  0.001410952  22.6255        216
 4.68   0.0000    429.8530    717.5466  54.55     344.7308     2.400           15     1.918      4.941  0.001410314  21.7063        217
 3.50   0.0000    425.7675   1177.7944  33.32     428.3212     1.916           15     1.539      1.823  0.001410473  21.4706        218
 4.62   0.0000    419.0101   1579.1522 -62.86     210.9084     1.102           15     1.024      1.337  0.001410952  22.2398        219
 7.81   0.0000    413.4175    178.7532 -18.59     84.56298     0.755           15     0.454      1.769  0.001410473  23.2320        220
 3.82   0.0000    467.0056    848.9196  22.67     3531.326     8.865           15     2.319     11.415  0.001410154  19.1802        221
 6.82   0.0000    421.8432    629.8857 -28.83     114.8327     1.314           15     0.776      3.214  0.001409995  22.8998        222
 3.67   0.0000    425.2735    298.3060  83.26     203.1155     1.071           15     1.002      0.883  0.001409356  22.2806        223
 3.50   0.0000    419.9527   1090.9771  44.56     105.1489     0.780           15     0.760      1.364  0.001410633  22.9955        224
 3.50   0.0000    449.3142     19.5246  76.83     5663.982     1.763           15     1.665      1.058  0.001409196  18.6672        225
 3.50   0.0000    423.4485   1062.2931  -2.88     170.5651     1.125           15     0.962      1.159  0.001409196  22.4703        226
 3.50   0.0000    432.1284   1420.5691 -15.23     1218.957     1.471           15     1.335      1.009  0.001410314  20.3350        227
 3.50   0.0000    433.0605    149.3733  16.36     571.0896     1.392           15     1.306      0.886  0.001410633  21.1582        228
 3.50   0.0000    425.7820   1007.1625 -62.72     104.4224     0.910           15     0.730      1.225  0.001410633  23.0030        229
 6.17   0.0636    427.1066    431.4993  -2.11   0.02404849     2.823           15     0.911      7.445  0.001408877  32.0973        230
 5.68   0.0000    434.7188    118.4007  -8.19     129.6121     1.583           15     1.476      3.102  0.001410314  22.7684        231
 3.79   0.0000    444.1181    120.4188 -29.29     670.7609     1.778           15     1.606      1.347  0.001410633  20.9836        232
 3.50   0.0000    439.0537    303.9864  66.69     614.4357     1.313           15     1.282      0.978  0.001410792  21.0788        233
 3.50   0.0000    456.8188     32.7342  71.02     6392.493     1.721           15     1.707      1.024  0.001410473  18.5358        234
 4.19   0.0000    432.5095    404.8405 -30.74     135.9492     1.005           15     0.924      1.120  0.001409675  22.7166        235
 4.34   0.0000    432.7837    351.6006  15.55     117.5102     0.945           15     0.926      0.994  0.001409995  22.8748        236
 4.69   0.0000    442.8842    653.6063  40.25     181.7781     1.101           15     1.031      1.067  0.001410154  22.4011        237
 4.23   0.0000    442.8299    172.7107  88.58     278.5847     1.146           15     1.114      1.374  0.001409835  21.9376        238
 4.10   0.0000    441.2750    957.8518 -61.55     107.3946     0.952           15     0.841      1.222  0.001409356  22.9725        239
 5.91   0.0000    436.5045     52.4718 -49.06     50.69706     0.502           15     0.497      0.997  0.001409516  23.7875        240
 4.22   0.0000    444.6239   1503.9014 -14.24      71.1952     1.124           15     0.935      1.291  0.001409356  23.4189        241
 3.50   0.0000    462.7146    466.8772  49.50     1865.289     1.634           15     1.521      1.052  0.001409037  19.8731        242
 3.50   0.0000    453.5330   1222.8749 -56.47     145.0447     1.249           15     1.089      1.160  0.001409037  22.6462        243
 3.50   0.0000    452.0466   1531.8092 -15.24      320.567     1.156           15     1.071      1.238  0.001410952  21.7852        244
 4.13   0.0000    450.6602   1129.9235  76.00     53.03664     1.003           15     0.756      1.485  0.001409675  23.7386        245
 3.50   0.0000    470.5872    252.7215  52.06     1625.425     1.923           15     1.490      1.155  0.001410952  20.0226        246
 3.50   0.0000    460.1024   1094.5745  39.48     569.8854     1.470           15     1.287      1.052  0.001409675  21.1605        247
 4.07   0.0000    472.2964   1131.0360  86.33     158.6292     2.431           15     0.883      2.985  0.001408877  22.5490        248
 3.59   0.0000    460.4799    723.4733 -13.17     323.8121     1.874           15     1.317      1.908  0.001409516  21.7743        249
 3.50   0.0000    471.0857    733.2172 -22.08     2360.875     1.545           15     1.502      0.831  0.001410314  19.6173        250
 6.99   0.0000    456.0136    483.0009  -0.12       35.328     0.616           15     0.611      1.041  0.001410154  24.1797        251
 3.77   0.0000    495.2566     80.9949 -75.58     1760.658     3.127           15     2.714      4.594   0.00141143  19.9358        252
 3.50   0.0000    477.0055    921.4139 -40.47     3003.689     1.569           15     1.508      0.883  0.001409516  19.3559        253
 5.24   0.0000    464.4754    127.5465 -21.31     176.5212     1.660           15     1.062      4.332  0.001409675  22.4330        254
 8.68   0.0000    456.3340   1235.6608  44.78     33.98438     0.580           15     0.332      2.127  0.001409675  24.2218        255
 4.39   0.0000    466.0786   1196.8776  82.31     122.6502     1.291           15     1.182      1.585  0.001409835  22.8283        256
 4.34   0.0000    464.8790    559.8107  65.00     141.3463     1.109           15     1.024      1.138  0.001410633  22.6743        257
 3.71   0.0000    488.1693    838.0694 -89.64     440.9679     3.072           15     1.199      3.600  0.001410314  21.4390        258
 3.50   0.0000    495.0998   1185.2753 -26.16     1786.975     3.613           15     2.536      5.603  0.001408557  19.9197        259
 3.50   0.0000    477.0033   1275.3079 -41.29     889.3167     1.399           15     1.285      0.709  0.001409675  20.6774        260
 3.50   0.0000    478.1635    680.9523 -65.20     249.6301     1.563           15     1.056      1.206  0.001410633  22.0568        261
 5.31   0.0000    471.7993    780.1220  23.95     64.20758     1.139           15     1.007      0.985  0.001410633  23.5310        262
 5.67   0.0000    468.1573    662.1224 -41.34     70.10761     0.821           15     0.674      1.464  0.001409995  23.4356        263
 3.50   0.0000    475.0752   1166.8884   1.76     220.7518     1.107           15     1.092      1.213  0.001409037  22.1902        264
 5.95   0.0000    487.8893    422.9884 -49.23     209.8492     2.176           15     1.063      4.603  0.001410154  22.2452        265
 5.40   0.0000    479.9283   1518.1958 -47.30     148.0361     1.487           15     1.118      2.765  0.001410792  22.6241        266
 5.62   0.0000    483.3886    427.0773  87.07     102.4955     1.674           15     0.969      2.448  0.001410952  23.0232        267
 3.50   0.0000    483.0341   1069.1205 -13.33     1346.478     1.409           15     1.340      1.219  0.001409995  20.2270        268
 6.92   0.0000    481.1826     77.1426  58.34     180.2149     1.810           15     0.985      6.106  0.001410473  22.4105        269
 3.62   0.0000    503.2301    761.2233  -4.04     1006.315     2.381           15     2.117      2.342  0.001410154  20.5432        270
 5.61   0.0000    485.3775    827.2341  57.85     74.52527     1.007           15     0.787      0.924  0.001410473  23.3692        271
 7.17   0.0000    524.8239    527.8973  45.10     324.8124     6.536           15     1.651     17.210  0.001409675  21.7709        272
 7.37   0.0000    484.1759    253.5986 -69.90     47.27319     0.742           15     0.446      1.260  0.001410154  23.8635        273
 3.50   0.0000    514.5536   1459.5905  24.85     2336.376     4.878           15     1.874      6.140  0.001410952  19.6286        274
 7.85   0.0001    484.2979   1228.3258 -43.45      23.2569     0.558           15     0.342      1.543  0.001409196  24.6336        275
 4.56   0.0000    492.2623    572.9792 -16.88     137.7226     1.049           15     0.996      1.236  0.001410792  22.7025        276
 5.82   0.0000    484.5482    941.4947  -5.07      54.8263     0.500           15     0.498      1.121  0.001409356  23.7025        277
 3.50   0.0000    501.1273    862.1901 -16.89     675.4323     1.334           15     1.327      0.812  0.001410952  20.9760        278
 3.50   0.0000    497.0681    364.6265  11.28     300.6401     1.268           15     1.120      1.013  0.001410473  21.8549        279
 3.50   0.0000    494.4064   1419.9204   1.58     100.5449     1.198           15     0.974      1.369  0.001410314  23.0441        280
 3.50   0.0000    501.8904    441.4088 -66.56     93.08817     1.008           15     0.949      0.959  0.001409835  23.1278        281
 3.95   0.0000    509.0423    162.5956  -4.82     684.6799     2.507           15     1.321      3.353  0.001410792  20.9613        282
 7.44   0.0000    517.6046    511.1506  -0.00     197.4103     5.270           15     2.081     21.038  0.001411111  22.3116        283
 3.50   0.0000    504.1844   1567.6553 -16.97     127.3595     0.927           15     0.827      1.171  0.001410792  22.7874        284
 7.12   0.0000    504.4329    324.4170  47.55     111.2263     1.010           15     0.880      2.847  0.001410633  22.9345        285
 3.50   0.0000    512.9147   1177.8210 -35.72     754.1703     1.383           15     1.285      1.180  0.001410473  20.8563        286
 4.72   0.0000    509.1272    451.8443   5.49     142.2497     1.266           15     1.167      1.220  0.001409675  22.6674        287
 3.50   0.0000    518.2557    640.3034 -41.43     518.4762     1.607           15     1.444      1.281  0.001409196  21.2632        288
 6.05   0.0000    508.3752    306.8041 -19.91     109.5745     1.071           15     0.857      1.204  0.001410314  22.9507        289
 3.50   0.0000    517.3838   1517.8750  82.45     259.3484     1.163           15     1.121      1.245  0.001411111  22.0153        290
 7.42   0.0000    509.7285    323.9870   2.30     39.38835     0.727           15     0.687      1.552  0.001411271  24.0616        291
 4.16   0.0000    519.7965    852.2980 -59.33     162.3223     1.296           15     1.237      1.328  0.001409835  22.5241        292
 5.01   0.0001    510.5995    804.8359  19.75     11.36267     0.751           15     0.445      0.866  0.001409835  25.4113        293
 6.22   0.0000    516.0262    165.0444  45.65     62.40202     0.900           15     0.528      1.634  0.001411111  23.5620        294
 5.89   0.0000    519.4958    580.8436 -88.03     65.58628     0.948           15     0.742      1.948  0.001409196  23.5080        295
 7.28   0.0000    519.0308    828.0000  90.00      38.7354     0.843           15     0.289      2.204  0.001409995  24.0797        296
 6.24   0.0000    528.0430    163.3423  63.64     139.2589     1.365           15     0.878      2.155  0.001410154  22.6904        297
 3.50   0.0000    539.3129    998.3310 -70.29     1916.357     1.493           15     1.462      0.970  0.001409196  19.8438        298
 3.50   0.0000    535.0595    402.7670  29.08       317.24     1.780           15     1.365      1.777  0.001410473  21.7965        299
 7.27   0.0001    523.4644   1056.4950  39.70     15.91159     0.503           15     0.496      1.519  0.001409835  25.0457        300
 7.90   0.0001    522.5049    307.4641 -47.03      29.2875     0.508           15     0.490      2.452  0.001409835  24.3833        301
 3.50   0.0000    543.1094    932.6140 -66.88     214.9614     2.273           15     1.031      2.960  0.001410154  22.2191        302
 3.50   0.0000    530.8118   1565.2172  44.85     79.24799     0.940           15     0.889      1.413  0.001409995  23.3025        303
 9.17   0.0000    535.5113    282.4944  43.82     81.00488     0.501           15     0.499      1.894  0.001409037  23.2787        304
 3.50   0.0000    558.0371   1040.2251  -9.90     2540.064     1.655           15     1.506      1.036  0.001410473  19.5379        305
 3.81   0.0000    545.2867    849.4888  -7.60     74.90011     0.977           15     0.940      1.130  0.001409356  23.3638        306
 3.51   0.0000    570.2460     44.0987  49.45     1560.641     2.443           15     1.669      2.275  0.001408398  20.0667        307
 3.50   0.0000    581.1934    317.4510  36.99     11008.67     1.838           15     1.778      1.143  0.001411271  17.9457        308
 3.50   0.0000    570.6835   1446.9796  20.63      1397.25     3.167           15     1.966      3.940  0.001410473  20.1868        309
 3.50   0.0000    554.9998    777.1388  23.87     217.3556     1.096           15     1.071      1.101  0.001411271  22.2071        310
 4.68   0.0000    552.7538    964.6172  15.60     56.27761     0.969           15     0.848      1.351  0.001410633  23.6742        311
 4.32   0.0000    558.3867   1067.7919  68.18      91.6491     1.434           15     0.961      1.836  0.001409516  23.1447        312
 3.50   0.0000    579.6481    143.1503 -58.12     11265.81     1.752           15     1.731      1.127  0.001410952  17.9206        313
 3.50   0.0000    595.7391    781.1534 -55.17     4277.618     4.007           15     3.719      6.913  0.001410154  18.9720        314
 4.41   0.0000    563.8170    137.7230  87.64     446.0528     1.327           15     1.273      1.051  0.001410792  21.4265        315
 4.84   0.0000    553.9764    804.0148 -87.45     94.74342     0.783           15     0.774      1.243  0.001410154  23.1086        316
 3.50   0.0000    562.0296    904.3709  80.46     139.5166     1.039           15     0.920      1.227  0.001410314  22.6884        317
 3.50   0.0000    561.8604    839.1833 -53.65     99.76187     1.293           15     0.878      1.450  0.001410314  23.0526        318
 3.50   0.0000    560.1372   1502.7888  48.52      45.0566     0.816           15     0.673      1.764  0.001411271  23.9156        319
 4.70   0.0000    565.9980    630.5018 -86.06     140.2512     1.039           15     0.935      1.150  0.001409675  22.6827        320
 4.83   0.0000    563.3328   1168.7266 -46.71     59.96697     1.008           15     0.854      1.394  0.001409196  23.6052        321
 3.50   0.0000    575.3124   1000.2608 -15.35     434.5172     1.717           15     1.618      1.622  0.001409516  21.4550        322
 7.76   0.0000    561.3551    592.7014  47.64     53.36082     0.571           15     0.336      1.348  0.001408877  23.7319        323
 5.63   0.0000    569.2311    112.3170 -74.42      93.6145     1.106           15     0.970      1.213  0.001410154  23.1216        324
 5.51   0.0000    566.4101   1114.6134  46.64     68.20395     1.049           15     0.942      1.244  0.001409835  23.4655        325
 4.73   0.0000    577.0698    737.9145  52.47     219.3101     1.553           15     1.316      2.183  0.001409196  22.1974        326
 8.39   0.0000    568.1765    708.6044 -71.44     46.19824     0.754           15     0.449      2.556  0.001410314  23.8884        327
 8.20   0.0000    569.7476   1108.5878  71.26     45.82129     0.743           15     0.455      1.181  0.001410952  23.8973        328
 3.50   0.0000    583.4811     74.1989   9.33     620.7451     1.345           15     1.330      0.953  0.001410314  21.0677        329
 4.82   0.0000    578.4114    677.8210  22.31     194.7298     1.400           15     1.333      2.167  0.001410154  22.3264        330
 7.81   0.0000    569.6770   1177.3269  44.81     43.25648     0.570           15     0.337      1.154  0.001409516  23.9599        331
 3.93   0.0000    577.7634    843.4693  24.52     212.9558     1.852           15     0.943      2.495  0.001410473  22.2293        332
 4.85   0.0000    583.0475   1099.5220 -71.68     90.37446     1.075           15     0.944      1.498  0.001409835  23.1599        333
 6.25   0.0000    578.2902   1555.9836   1.85     45.71447     0.741           15     0.685      2.617  0.001410473  23.8999        334
 4.25   0.0000    577.9362    694.9722  48.91     58.57088     0.801           15     0.763      1.314  0.001410473  23.6308        335
 4.63   0.0000    584.4149   1171.3857  -1.89     258.2471     1.178           15     1.031      1.116  0.001410314  22.0199        336
 3.50   0.0000    581.6339   1485.3845  21.76     46.30314     0.911           15     0.783      1.028  0.001410473  23.8860        337
 5.91   0.0000    582.4998   1183.7992  89.48     72.22783     0.951           15     0.733      1.491  0.001409675  23.4032        338
 4.35   0.0000    583.6613    209.6293  40.40     93.27576     0.985           15     0.860      1.127  0.001410473  23.1256        339
 4.22   0.0000    587.5735   1137.8687 -13.30     151.9142     1.082           15     0.926      1.201  0.001410473  22.5960        340
 3.50   0.0000    997.2489    231.6879 -45.36     600.4706     1.222           15     1.169      1.010  0.001409516  21.1038        341
 3.84 3279.5820   1598.6643    709.2864   9.91 3.776713e-07     1.296           15     0.906      4.231  0.001140519  44.1072        342
 3.77   0.0000   1596.5712    653.1467 -22.61     373.2042     2.113           15     2.024      3.639  0.001275228  21.6201        343
 5.26   0.0241   1599.1162     17.0043   3.59   0.04998387     1.927           15     0.882      4.696  0.001107483  31.3029        344
 3.50   0.0000   1593.4677    372.3283  55.12     490.5679     1.714           15     1.434      1.206  0.001402794  21.3233        345
 8.48   0.0592   1593.4901    299.4872  45.17   0.02573378     0.505           15     0.494      3.032  0.001402473  32.0237        346
 4.81   0.0000   1590.3218    565.2696  12.19     280.8251     1.090           15     1.009      0.881  0.001409196  21.9289        347
 5.12   0.0000    924.6558    308.9607 -63.67     75.52056     0.904           15     0.680      1.104  0.001410473  23.3548        348
 4.69   0.0000    924.1212    932.8450  44.49       148.73     0.819           15     0.672      1.140  0.001409675  22.6190        349
 5.29   0.0000    918.7391   1343.1337  67.03     112.0066     0.904           15     0.679      1.508  0.001409675  22.9269        350
 3.50   0.0000    916.6985   1111.4067 -71.93     100.9292     0.945           15     0.613      1.189  0.001409835  23.0400        351
 3.90   0.0000    913.7256   1117.9791  42.97     109.0778     1.244           15     1.026      1.410  0.001410792  22.9557        352
 3.50   0.0000    911.7667    837.0067  37.12     966.8795     1.355           15     1.304      1.146  0.001410633  20.5866        353
 3.50   0.0000    911.3054    999.6420  24.80     602.8026     1.219           15     1.175      1.096  0.001409037  21.0996        354
 6.99   0.0000    911.4835    457.5421 -54.55     47.47859     0.501           15     0.497      1.033  0.001409516  23.8588        355
 5.25   0.0000    909.3325   1573.9618  -1.64     119.3997     1.186           15     0.984      1.379  0.001410314  22.8575        356
 6.41 137.6075    909.2690    758.5991 -71.28 1.113525e-05     0.749           15     0.451      3.381  0.001410952  40.4333        357
 5.04   0.0000    907.8105      3.4959  -7.19     169.1244     1.307           15     1.081      1.267  0.001218924  22.4795        358
 4.56   0.0000    907.0887    657.8475  43.72     260.9324     1.223           15     1.186      1.332  0.001409516  22.0087        359
 4.94   0.0000    903.2176    733.5343  10.01     153.0722     0.954           15     0.909      1.375  0.001410633  22.5878        360
 3.50   0.0000    899.4393    301.1285 -80.47     7138.792     1.700           15     1.660      1.099  0.001410314  18.4159        361
 3.99   0.0000    895.2024    537.0011   7.32     1389.102     2.365           15     1.971      2.418  0.001410633  20.1932        362
 4.34   0.0000    899.2005    449.7508 -46.26     113.1669     0.736           15     0.557      1.225  0.001411271  22.9157        363
 3.50   0.0000    898.5992    378.3526 -44.08     205.0771     0.989           15     0.830      0.919  0.001411271  22.2702        364
 3.80   0.0000    896.2007    985.9028 -65.28     254.8414     1.349           15     1.096      1.181  0.001409995  22.0343        365
 6.04   0.0000    897.3219    727.9781   1.55     94.44264     0.729           15     0.672      1.312  0.001410473  23.1121        366
 3.50   0.0000    892.9716   1424.8123 -15.48     424.2057     1.348           15     1.271      1.164  0.001410633  21.4811        367
 6.54   0.0000    894.1020   1570.1129  -6.01     110.7624     0.902           15     0.751      1.485  0.001408717  22.9390        368
 3.50   0.0000    879.3785   1591.1549 -62.18     58943.93     2.163           15     2.036      1.898  0.001410633  16.1239        369
 4.38   0.0000    887.5998    324.2739  12.94     819.5876     2.317           15     1.681      2.630  0.001410792  20.7660        370
 3.50   0.0000    887.6968    679.4929 -39.65     234.0851     1.485           15     1.173      1.215  0.001408877  22.1266        371
 4.62   0.0000    888.2027    989.3417  74.47     89.14475     0.742           15     0.447      0.937  0.001411271  23.1748        372
 3.50   0.0000    884.8168   1498.7977 -46.66     919.0716     1.366           15     1.290      1.174  0.001409995  20.6416        373
 7.82   0.0000    886.6954     12.8620 -31.07     143.7298     0.871           15     0.602      2.969  0.001409675  22.6561        374
 4.81   0.0000    883.8887    337.3006  26.18     474.0152     2.122           15     1.365      1.714  0.001408717  21.3605        375
 6.24   0.0000    882.1483    443.6690  20.73     105.1868     0.902           15     0.688      1.666  0.001409675  22.9951        376
 3.50   0.0000    878.5627    670.3316 -29.48     251.1705     1.540           15     1.409      1.867  0.001410314  22.0501        377
 3.50   0.0000    876.5948    959.5047 -79.09     602.3367     1.289           15     1.221      0.999  0.001409995  21.1004        378
 3.98   0.0000    875.3674    540.0736 -52.83     244.2462     1.226           15     1.152      1.158  0.001409995  22.0804        379
 3.50   0.0000    868.4336   1102.0602 -58.18     2413.734     2.098           15     1.880      1.432  0.001410473  19.5933        380
 3.50   0.0000    866.6861    937.9076  43.73     1000.768     2.547           15     1.557      2.731  0.001409037  20.5492        381
 3.50   0.0000    868.3865    642.1345  64.28     330.7356     1.208           15     1.085      0.978  0.001410952  21.7513        382
 3.86   0.0000    868.9888   1434.9374   8.40     66.83155     0.789           15     0.770      1.396  0.001411111  23.4875        383
 3.50   0.0000    865.7175    453.1240 -24.91     203.8492     1.218           15     1.040      1.255  0.001409356  22.2767        384
 6.56   0.0000    865.8102    814.8403  45.72     62.76165     0.755           15     0.565      1.573  0.001410473  23.5558        385
 3.50   0.0000    863.9714   1477.8024  47.19     163.3612     1.102           15     0.956      1.159  0.001409995  22.5171        386
 5.85   0.0000    863.2290    772.0788   9.50     117.0577     1.228           15     0.837      1.887  0.001409995  22.8790        387
 5.98   0.0000    863.4698    353.5137  30.65     190.9013     1.029           15     1.016      1.208  0.001409196  22.3480        388
 3.50   0.0000    859.6398   1552.9724  32.19     188.3273     1.148           15     0.968      1.292  0.001410792  22.3627        389
 5.09   0.0000    861.0914    635.3044  14.31     115.0164     1.009           15     0.758      1.332  0.001408877  22.8981        390
 3.50   0.0000    857.4657   1338.7916 -83.66     713.4391     1.519           15     1.107      1.991  0.001411271  20.9166        391
 6.89   0.0000    857.5911    572.8773 -26.69     248.1243     1.630           15     0.770      3.020  0.001410792  22.0633        392
 4.26   0.0000    854.6438    543.5765 -83.91     303.8916     1.617           15     1.270      1.483  0.001410633  21.8432        393
 7.42   0.0000    854.8513   1428.6572 -19.16     113.4674     0.935           15     0.687      2.038  0.001410154  22.9128        394
 6.92   0.0000    854.9912    685.0032  43.99     77.51223     0.917           15     0.527      1.810  0.001409835  23.3266        395
 6.15   0.0000    854.0582   1346.4340  -1.78     76.17134     1.030           15     0.777      1.132  0.001410633  23.3455        396
 7.69   0.0000    847.9819   1458.7313 -88.90      98.4589     0.671           15     0.443      2.516  0.001410792  23.0669        397
 5.40   0.0000    846.7172   1562.2914  43.95     116.7172     0.950           15     0.757      1.705  0.001409516  22.8822        398
 5.26   0.0000    845.4421    359.5751   0.35     465.6525     2.402           15     1.473      4.606  0.001410952  21.3798        399
 3.50   0.0000    843.9017   1062.4144 -66.76     571.7035     1.299           15     1.234      0.850  0.001409835  21.1571        400
 3.50   0.0000    842.4244   1104.7135  23.53     1080.505     1.893           15     1.500      1.226  0.001410314  20.4659        401
 6.49   0.0001    841.5250   1496.4904 -43.62      20.4228     0.505           15     0.494      1.712  0.001409196  24.7747        402
 5.87   0.0000    839.9103    545.6884 -21.13     119.6325     0.925           15     0.681      1.315  0.001408877  22.8554        403
 5.63   0.0000    837.5941    898.5250 -48.44      153.723     1.330           15     0.892      3.903  0.001411111  22.5832        404
 3.50   0.0000    836.8246    990.4078 -12.61     235.4148     1.278           15     1.128      1.240  0.001410314  22.1204        405
 3.50   0.0000    835.5145    297.0743 -21.56     1567.072     1.481           15     1.463      0.945  0.001409196  20.0623        406
 3.50   0.0000    835.7469   1519.0468 -32.55      241.442     1.132           15     1.030      1.202  0.001410473  22.0930        407
 4.21   0.0000    837.2447    493.3615  72.92     69.87763     0.745           15     0.448      1.285  0.001410952  23.4392        408
 3.50   0.0000    834.6254    817.6035 -27.22     390.1875     1.266           15     1.166      1.082  0.001410154  21.5718        409
 7.43   0.0000    830.7037   1057.6527 -42.48     31.18918     0.566           15     0.338      1.058  0.001409356  24.3150        410
 3.50   0.0000    822.0414    652.7550  82.83     7022.288     1.739           15     1.725      1.166  0.001410473  18.4338        411
 6.26   0.0000    825.9578    597.4583 -88.91     34.87558     0.785           15     0.498      1.153  0.001409995  24.1937        412
 4.77   0.0000    823.8602    673.1241  46.34     100.7697     0.815           15     0.674      0.845  0.001409835  23.0417        413
 4.22   0.0000    821.0692    329.1193 -57.14     163.8753     1.069           15     0.848      1.173  0.001409516  22.5137        414
 3.50   0.0000    818.8883   1397.0548 -47.99     192.5031     1.091           15     1.064      1.300  0.001409516  22.3389        415
 5.71   0.0000    818.5995   1574.1520 -79.31     103.1037     0.861           15     0.603      1.331  0.001411271  23.0168        416
 3.50   0.0000    817.9454    701.0992  -5.45     263.2265     1.095           15     1.079      0.696  0.001408877  21.9992        417
 7.24   0.0000    818.4544    745.4844 -23.65      72.6119     0.500           15     0.497      1.018  0.001409356  23.3975        418
 3.50   0.0000    814.6810    876.8893  83.37     324.8434     1.616           15     1.435      1.842  0.001409356  21.7708        419
 7.06   0.0000    816.5355    598.5270 -41.29     36.46674     0.501           15     0.497      1.085  0.001409516  24.1453        420
 3.50   0.0000    818.0857    777.6890 -59.97     190.1061     1.300           15     0.811      1.202  0.001409356  22.3525        421
 3.50   2.8901    808.9895   1543.1666  57.66 0.0005300724     1.136           15     1.036      3.134  0.001410633  36.2392        422
 3.50   0.0000    808.5921    842.6832 -70.50     94.19332     0.919           15     0.796      1.030  0.001410154  23.1149        423
 7.30   0.0000    826.0181    666.4921  87.92     45.74649     0.789           15     0.499      1.205  0.001410154  23.8991        424
 3.50   0.0000    802.1636   1377.2766 -69.91     6708.479     1.736           15     1.651      1.269  0.001409995  18.4834        425
 3.50   0.0000    797.5810    694.0712 -88.16     18373.43     2.540           15     1.802      2.005  0.001411111  17.3895        426
 3.50   0.0000    799.6675     39.3221 -29.10     3114.433     1.807           15     1.542      0.957  0.001409037  19.3166        427
 7.01   0.0010    800.8705   1595.1715  49.26     1.525939     0.799           15     0.678      4.515  0.001345807  27.5912        428
 4.82   0.0000    793.4406    293.9878 -72.35     182.3281     1.487           15     1.192      1.510  0.001410473  22.3979        429
 4.22   0.0000    785.3290   1347.5829  22.92     99.21773     0.892           15     0.783      1.048  0.001411111  23.0585        430
 3.50   0.0000    773.2756   1425.9465 -89.53     2158.905     3.775           15     2.243      4.681  0.001409516  19.7144        431
 7.53   0.0000    778.2861   1366.3441 -41.89     34.04716     0.560           15     0.340      1.340  0.001409356  24.2198        432
 3.94   0.0000    767.0451    138.3304 -52.97     369.4606     1.580           15     1.419      1.348  0.001409835  21.6311        433
 3.80   0.0000    766.5131    928.8765  38.23     161.5812     1.226           15     1.123      1.425  0.001409037  22.5290        434
 3.50   0.0000    763.4185    565.9860 -13.80      155.429     1.121           15     0.932      1.205  0.001410154  22.5712        435
 6.87   0.0001    763.5124   1010.5046  44.84     19.36839     0.512           15     0.488      1.858  0.001408717  24.8323        436
 6.14   0.0000    762.5088   1570.5133 -45.38      47.7048     0.504           15     0.496      1.691  0.001408877  23.8536        437
 3.50   0.0000    756.5867   1339.8333 -42.46     230.4503     1.989           15     1.058      2.469  0.001410473  22.1436        438
 5.90   0.0000    758.4918    540.5508  71.42     53.31623     0.500           15     0.497      1.009  0.001409516  23.7329        439
 5.95   0.0000    757.3130    104.2901 -57.36     154.9234     1.097           15     0.892      1.985  0.001408877  22.5747        440
 4.51   0.0000    753.7781    194.2249  70.13     533.7577     2.055           15     1.887      3.354  0.001410473  21.2316        441
 8.63   0.0000    753.5063    163.4724  54.39      106.475     0.501           15     0.498      3.004  0.001409516  22.9819        442
 3.50   0.0000    751.6179   1078.6741 -49.49     172.3089     1.048           15     0.892      1.133  0.001411111  22.4592        443
 5.97   0.0000    746.5100   1108.5317  64.24     104.8922     0.500           15     0.499      1.023  0.001409356  22.9981        444
 6.87   0.0000    743.6679    839.2269  -5.82     149.2308     1.520           15     1.427      2.589  0.001410473  22.6154        445
 6.32   0.0000    744.9675    833.1708 -58.87     105.4023     1.061           15     0.660      1.659  0.001410633  22.9929        446
 3.50   0.0000    741.8317    554.6776 -39.14     1629.166     1.558           15     1.484      1.035  0.001410154  20.0201        447
 4.98   0.0000    740.4764    917.9952   2.69     62.92981     0.789           15     0.499      0.974  0.001410633  23.5529        448
 7.42   0.0000    740.0167    120.9845  43.41     71.25064     0.896           15     0.533      1.926  0.001410314  23.4180        449
 3.50   0.0000    738.4902   1271.3287  50.55     120.9394     1.127           15     0.782      1.024  0.001409516  22.8436        450
 3.50   0.0000    737.0906   1156.6687 -48.73      571.131     1.332           15     1.237      1.079  0.001409356  21.1582        451
 3.50   0.0000    725.6438    846.8092  -8.10     50990.34     2.092           15     2.050      1.500  0.001410633  16.2813        452
 3.56   0.0000    735.1107    648.1402   1.49     632.4479     1.314           15     1.279      0.939  0.001409516  21.0474        453
 8.06   0.0000    732.6804     95.6733 -44.66     34.42017     0.568           15     0.338      2.183  0.001409516  24.2080        454
 6.22   0.0000    729.0665    751.7090  80.10     99.98588     1.363           15     0.980      2.728  0.001409675  23.0502        455
 3.50   0.0000    726.5311   1176.7500 -35.84       1110.1     1.427           15     1.384      1.125  0.001409675  20.4366        456
 3.50   0.0000    727.9200   1542.3892 -15.43      133.109     0.984           15     0.733      1.463  0.001410633  22.7395        457
 3.50   0.0000    720.4925   1393.5988   9.56     444.7159     1.516           15     1.226      1.253  0.001409835  21.4298        458
 3.78   0.0000    721.3456    260.6550 -42.60     71.28902     0.999           15     0.873      1.241  0.001410154  23.4174        459
 3.50   0.0000    714.8616    806.8423  -2.43     1416.309     1.453           15     1.415      1.080  0.001410314  20.1721        460
 3.50   0.0000    708.0568   1162.3643  25.23     1455.808     1.431           15     1.423      0.938  0.001410633  20.1422        461
 5.49   0.0000    709.3889    193.4371  40.53     148.8973     1.342           15     0.903      2.144  0.001410473  22.6178        462
 3.50   0.0000    703.9196   1337.5720 -22.92     1391.627     1.897           15     1.704      1.711  0.001410314  20.1912        463
 3.50   0.0000    701.9553    950.9884 -45.14     2590.222     1.654           15     1.543      1.215  0.001410473  19.5167        464
 6.30   0.0000    704.7881    610.4400 -69.71     64.97204     0.747           15     0.451      1.486  0.001410473  23.5182        465
 9.47   0.0000    704.5004    603.4851  45.60     76.66131     0.505           15     0.495      2.023  0.001408557  23.3386        466
 5.98   0.0000    702.2057    632.3746  73.41     33.35624     0.728           15     0.456      0.820  0.001410473  24.2421        467
 4.72   0.0000    700.6744    649.9207   6.43     127.6988     0.736           15     0.659      1.353  0.001409675  22.7845        468
 4.15   0.0000    697.9974    581.0242   6.67     643.4341     2.426           15     1.403      2.806  0.001410154  21.0287        469
 5.82   0.0000    696.0619   1199.0396  43.69     77.91846     0.869           15     0.534      1.098  0.001410314  23.3209        470
 4.42   0.0000    695.5082    275.3399 -46.93     95.32767     0.985           15     0.851      1.083  0.001409516  23.1020        471
 3.50   0.0000    690.8049   1212.2382  38.79     531.3993     1.743           15     1.402      1.320  0.001410314  21.2364        472
 3.51   0.0000    685.6292   1212.3169 -12.19      390.123     1.344           15     1.157      1.247  0.001410314  21.5720        473
 5.86   0.0000    688.7242    666.9899  65.11     80.12066     1.003           15     0.597      1.769  0.001411111  23.2906        474
 3.50   0.0000    684.5392    642.6725 -87.73     2104.529     1.757           15     1.587      1.071  0.001409835  19.7421        475
 3.50   0.0000    686.5309    129.1956 -68.31     328.4646     1.222           15     1.194      1.006  0.001410952  21.7588        476
 5.50   0.0000    686.2997   1043.4269  30.75     64.86174     0.951           15     0.534      0.989  0.001409356  23.5200        477
 5.18   0.0000    683.1298   1564.1487 -47.60     75.80554     0.821           15     0.675      1.564  0.001409675  23.3507        478
 5.90   0.0000    676.3763    199.5715  13.30     168.9265     0.952           15     0.801      1.240  0.001410633  22.4808        479
 4.39   0.0000    674.9564   1163.1382   1.42     105.3902     0.921           15     0.751      1.368  0.001410154  22.9930        480
 5.03   0.0000    671.9017    229.6998  15.72     181.3868     1.293           15     1.122      1.360  0.001408877  22.4035        481
 4.55   0.0000    668.2275   1219.9333 -72.12     269.2151     1.550           15     1.474      1.552  0.001410314  21.9748        482
 3.50   0.0000    665.8412   1178.6086 -73.27     173.0822     1.061           15     0.934      1.106  0.001410633  22.4544        483
 3.50   0.0000    665.4398   1068.4226  47.86     91.29237     0.995           15     0.848      1.129  0.001410633  23.1489        484
 5.39   0.0000    661.9376     80.7693   1.96     63.75877     0.935           15     0.741      1.218  0.001410314  23.5386        485
 3.50   0.0000    647.4383   1462.9248 -65.69     50111.12     2.033           15     1.959      1.590  0.001410154  16.3002        486
 3.50   0.0000    653.7339    869.2443 -79.24     643.1813     1.348           15     1.292      0.901  0.001410154  21.0292        487
 5.56   0.0000    649.5137   1159.3687 -16.72     187.7854     1.369           15     0.895      3.259  0.001410314  22.3658        488
 6.77   0.0000    646.1516   1152.8938  42.03      107.962     0.842           15     0.668      4.100  0.001409196  22.9668        489
 4.07   0.0000    644.7930    651.3752 -43.29     415.9821     1.258           15     1.211      0.983  0.001410633  21.5023        490
 3.51   0.0000    640.3278    274.9030 -27.79     224.2375     1.396           15     1.143      1.149  0.001409356  22.1732        491
 8.71   0.0000    636.4829    646.4597  69.64     89.24868     0.500           15     0.498      1.953  0.001409516  23.1735        492
 3.50   0.0000    629.7294    804.6353  57.10     683.1421     1.347           15     1.284      1.046  0.001410473  20.9637        493
 3.50   0.0000    630.3719    853.8053 -21.80     74.36871     1.096           15     0.863      1.206  0.001410314  23.3715        494
 7.22   0.0001    631.4944     67.4594 -47.98     27.61086     0.507           15     0.491      1.796  0.001409516  24.4473        495
 3.50   0.0000    628.4142    940.7632 -89.84     70.26682     0.920           15     0.723      1.190  0.001410792  23.4331        496
 4.49   0.0000    625.8839    131.8183 -48.93     74.83937     0.823           15     0.662      1.675  0.001410473  23.3647        497
 3.50   0.0000    622.6724   1580.3527  13.45     1154.439     1.402           15     1.390      1.584  0.001409835  20.3941        498
 6.10   0.0000    623.9185    342.5090   5.19     95.95464     1.334           15     0.903      3.537  0.001409675  23.0948        499
 6.64   0.0000    622.9833   1077.7543 -89.15     42.74825     0.680           15     0.430      1.458  0.001410633  23.9727        500
 3.67   0.0000    617.2492   1150.4242 -12.63     488.4529     2.261           15     1.411      2.666  0.001410952  21.3279        501
 6.28   0.0000    618.4885     93.1205 -24.59     116.5437     1.295           15     0.927      1.765  0.001409356  22.8838        502
 3.50   0.0000    615.5867    117.1060 -73.69     109.0687     0.995           15     0.741      1.285  0.001409995  22.9557        503
 6.30   0.0000    614.1476    288.1102 -44.12     100.0456     0.829           15     0.670      1.534  0.001409835  23.0495        504
 3.50   0.0000    610.5753    994.0144  -0.25     96.01437     1.143           15     0.948      1.374  0.001409995  23.0942        505
 4.38   0.0000    610.1757    961.7768  47.67     53.17166     0.782           15     0.667      1.178  0.001410633  23.7358        506
 3.50   0.0000    608.4755    943.9404  49.50     268.7453     1.213           15     0.989      1.244  0.001409835  21.9766        507
 3.50   0.0000    606.5281   1009.5546 -58.12     76.66447     0.876           15     0.865      1.028  0.001409835  23.3385        508
 4.01   0.0000   1540.0460    328.3202  81.78     149.2333     0.725           15     0.669      0.722  0.001409675  22.6153        509
 6.14   0.0000    601.7967    763.1487  43.01     62.61198     0.821           15     0.670      1.529  0.001411271  23.5584        510
 6.00   0.0000    598.2537    666.6852 -64.15     121.0363     1.101           15     0.878      1.678  0.001409516  22.8427        511
 7.70   0.0000    597.5757    356.2340 -19.66     62.68733     0.749           15     0.451      1.473  0.001410473  23.5571        512
 4.96   0.0000    595.9663   1124.0198 -47.83     63.39876     0.796           15     0.776      1.592  0.001410633  23.5448        513
 4.29   0.0000    592.9527    881.0997  71.99     131.4499     1.215           15     1.098      1.442  0.001408398  22.7531        514
 4.35   0.0000   1592.2582   1383.2957 -11.28     356.7587     1.526           15     1.129      1.353  0.001409196  21.6691        515
 5.12   0.0000   1552.9885   1370.2683 -84.68     99.81828     0.732           15     0.663      1.461  0.001411111  23.0520        516
 3.50   0.0000   1537.6019    261.7692 -29.99     293.0371     1.067           15     0.935      1.122  0.001410154  21.8827        517
 3.50   0.0000   1583.9221   1107.3611  85.18     2085.809     1.496           15     1.456      0.856  0.001409995  19.7518        518
 3.50   0.0000   1540.7058    133.3067 -30.45     4340.164     1.597           15     1.574      0.897  0.001408877  18.9562        519
 5.40   0.0000   1584.9180   1068.0917 -36.90     555.9841     1.156           15     1.084      1.194  0.001409835  21.1873        520
 4.74   0.0000   1495.4766    928.6411 -51.51     205.0082     1.114           15     0.767      1.138  0.001409995  22.2706        521
 6.04   0.0000   1588.4656   1334.4880  43.28     110.7196     0.508           15     0.491      1.104  0.001409835  22.9394        522
 3.50   0.0000   1580.4094   1412.8583  60.08      401.293     1.413           15     1.197      1.589  0.001411271  21.5413        523
 6.60   0.0000   1533.5510    973.9435 -45.96     449.1786     1.599           15     1.063      6.440  0.001410154  21.4190        524
 3.50   0.0000   1531.6090    414.0503   4.22     745.3755     1.813           15     1.592      1.778  0.001411111  20.8691        525
 3.50   0.0000   1574.2085   1489.8726  48.94     449.0246     1.094           15     0.981      1.250  0.001410792  21.4193        526
 5.47   0.0000   1585.3646    639.9453  55.17     225.1676     1.007           15     0.830      1.777  0.001410473  22.1687        527
 4.00   0.0000   1570.4760   1337.0015  61.29     194.1298     0.979           15     0.669      1.191  0.001410633  22.3298        528
 8.47   0.0000   1585.4020   1081.1866  19.32      138.832     0.746           15     0.449      1.552  0.001409995  22.6938        529
 5.82   0.0000   1556.3767    736.7157 -18.27      157.752     0.913           15     0.634      1.238  0.001410154  22.5551        530
 7.10   0.0000   1552.9561   1231.5955  13.46     304.6203     0.994           15     0.749      5.609  0.001410792  21.8406        531
 3.50   0.0000   1569.3855     90.9244 -41.91     2280.425     1.547           15     1.465      1.086  0.001411111  19.6550        532
 6.11   0.0000   1563.3801   1056.7480 -16.56     150.9184     0.735           15     0.457      1.386  0.001410633  22.6031        533
 5.13   0.0000   1534.6698    918.3033 -41.64     394.1993     0.969           15     0.847      0.982  0.001409835  21.5607        534
 3.50   0.0000   1562.5890    302.4531 -45.85     47509.52     2.014           15     1.964      1.574  0.001411111  16.3580        535
 3.50   0.0000   1560.2655    859.8251  74.07      1645.12     1.435           15     1.356      1.143  0.001410473  20.0095        536
 3.50   0.0000   1565.5536     20.2132  87.94     2725.843     1.566           15     1.552      0.913  0.001410473  19.4612        537
 4.80   0.0000   1537.9054    504.3604 -79.66     237.5227     1.326           15     1.004      1.709  0.001409037  22.1107        538
 3.50   0.0000   1561.7708   1564.7494 -64.12     358.9612     1.056           15     1.024      1.202  0.001410792  21.6624        539
 3.50   0.0000   1551.5602    680.5723 -23.98     18198.77     5.059           15     4.234      8.581  0.001410792  17.3999        540
 3.75   0.0000   1561.5504    384.5741 -86.12     448.0764     1.969           15     1.012      2.409  0.001411111  21.4216        541
 3.81   0.0000   1545.0364    861.9048  43.89     1370.568     1.943           15     1.700      1.573  0.001409196  20.2077        542
 3.62   0.0000   1564.7646    782.9753 -75.08     1684.707     2.289           15     1.662      1.575  0.001410314  19.9837        543
 3.50   0.0000   1557.0251    485.9522 -48.14     46123.16     2.023           15     1.971      1.486  0.001410952  16.3902        544
 6.15   0.0000   1551.1417    131.7934  45.45     150.5138     0.821           15     0.672      1.421  0.001411271  22.6061        545
 4.06   0.0000   1549.9312   1220.6552 -15.27     805.2047     1.317           15     1.206      1.084  0.001409675  20.7852        546
 3.50   0.0000   1535.1492   1427.4189 -48.79     650.7608     2.269           15     1.117      2.909  0.001410633  21.0164        547
 3.50   0.0000   1550.4473    350.6767  67.18     130.4526     0.938           15     0.819      1.145  0.001409675  22.7614        548
 6.23   0.0000   1534.5162   1151.1300 -54.21      122.291     0.909           15     0.671      1.913  0.001409196  22.8315        549
 3.50   0.0000   1551.0107   1512.1771   1.13     202.2648     0.881           15     0.749      1.231  0.001410154  22.2852        550
 5.45   0.0000   1527.4613    731.5829  51.89     382.5939     1.479           15     1.129      1.237  0.001410154  21.5932        551
 6.31   0.0000   1528.1403    548.5298 -30.90     115.2877     1.042           15     0.466      1.119  0.001409995  22.8955        552
 6.37   0.0000   1508.4961   1207.4698 -54.80     162.5852     0.501           15     0.498      1.566  0.001409675  22.5223        553
 3.50   0.0000   1481.3420    573.6694 -42.68     901.5892     2.344           15     1.538      2.715  0.001409835  20.6625        554
 3.50   0.0000   1541.5586    652.9531 -77.26     3142.147     1.612           15     1.584      0.996  0.001410633  19.3069        555
 6.87   0.0000   1535.1721   1059.8419 -49.98     132.2628     0.753           15     0.567      1.506  0.001410792  22.7464        556
 7.75   0.0000   1529.3199    894.3311 -44.47     44.24781     0.570           15     0.337      2.075  0.001409356  23.9353        557
 5.11   0.0000   1521.6088     12.4769  -7.77     367.4039     1.164           15     1.074      1.023  0.001410792  21.6371        558
 4.90   0.0000   1518.9514   1099.4447 -74.39     611.6265     1.797           15     1.408      1.924  0.001410633  21.0838        559
 3.50   0.0000    931.4564   1116.4851   8.64     177.2363     1.019           15     1.005      1.044  0.001409516  22.4286        560
 3.50   0.0000   1518.1683     83.3237  15.59     461.8509     1.472           15     1.288      1.444  0.001410154  21.3887        561
 3.50   0.0000   1506.1298    267.6162 -47.10     30202.49     1.913           15     1.896      1.403  0.001411111  16.8499        562
 3.50   0.0000   1522.6522    377.0815  64.85     365.8869     1.751           15     1.044      2.269  0.001409516  21.6416        563
 3.50   0.0000   1514.4874   1545.7643  74.89     689.3907     1.728           15     1.297      1.584  0.001409835  20.9538        564
 4.91   0.0000   1526.1040    877.5257 -49.22      289.106     1.023           15     0.927      1.033  0.001409516  21.8974        565
 7.30   0.0000   1524.4740   1214.5237  44.72     83.66084     0.505           15     0.493      1.106  0.001409516  23.2437        566
 7.12   0.0000   1511.4639      3.5066  40.99     63.38219     0.504           15     0.495      2.504  0.001220031  23.5451        567
 5.75   0.0000   1503.3700   1310.4868  39.29     261.2706     1.047           15     0.937      1.596  0.001410314  22.0073        568
 3.50   0.0000   1513.8733    390.9593   5.83     9011.605     1.729           15     1.693      1.215  0.001410154  18.1630        569
 5.31   0.0000   1500.3174    678.8658  69.82     130.8601     0.944           15     0.676      1.235  0.001409196  22.7580        570
 3.52   0.0000   1513.5613    482.0047 -34.15     920.3942     1.236           15     1.187      1.002  0.001410314  20.6401        571
 4.81   0.0000   1496.0406   1123.2915  87.25     130.2522     0.731           15     0.665      1.367  0.001409196  22.7630        572
 8.03   0.0000   1491.4912   1094.4882 -45.23     69.56676     0.504           15     0.496      1.318  0.001409037  23.4440        573
 5.69   0.0000   1502.9541   1095.0155 -33.18     350.5714     1.143           15     1.119      1.446  0.001410473  21.6881        574
 4.67   0.0000   1501.4293   1412.0208  86.71     188.8582     1.052           15     0.777      1.587  0.001410314  22.3597        575
 5.68   0.0000   1470.8156    428.6272  73.27     45.20375     0.747           15     0.452      1.025  0.001410473  23.9121        576
 3.50   0.0000   1503.1013    721.7958  86.02     1210.415     1.452           15     1.342      1.138  0.001409995  20.3427        577
 6.42   0.0000   1465.1569    117.1400  45.47     45.04858     0.764           15     0.574      1.525  0.001410314  23.9158        578
 4.11   0.0000   1496.6438    671.8790 -68.72     116.0377     0.852           15     0.694      1.325  0.001409835  22.8885        579
 4.53   0.0000   1496.9937   1231.2518   3.86      202.383     0.885           15     0.749      1.314   0.00141143  22.2846        580
 5.09   0.0000    952.3457   1502.9412 -74.55     105.4105     0.953           15     0.747      1.341  0.001409835  22.9928        581
 3.50   0.0000    927.3387   1321.0692 -66.03     1155.842     1.490           15     1.389      1.295  0.001409675  20.3928        582
 3.50   0.0000   1497.6678    842.9132 -81.73     684.4697     1.148           15     1.129      1.249  0.001409196  20.9616        583
 3.77   0.0000   1475.9598    197.0665  16.39     367.9463     1.276           15     1.094      1.163  0.001410314  21.6355        584
 3.71   0.0000    940.5369    724.2392  51.69      225.086     1.253           15     1.154      1.479  0.001410314  22.1691        585
 4.39   0.0000   1487.1908     76.3170  -5.75     663.9252     1.362           15     1.208      1.067  0.001410154  20.9947        586
 3.50   0.0000    938.2679   1065.6361  78.67     2049.562     1.518           15     1.428      1.077  0.001410473  19.7708        587
 6.58   0.0000   1493.3007    870.6550  48.87     205.4191     0.973           15     0.752      1.358  0.001408877  22.2684        588
 4.75   0.0000    925.0792    664.7285  57.75     173.1629     1.136           15     1.000      1.205  0.001409516  22.4539        589
 4.41   0.0000    937.2828    514.7414  60.58     717.2873     2.450           15     1.768      3.331  0.001409516  20.9108        590
 7.95   0.0000   1482.4895    766.5070  44.88     99.18361     0.507           15     0.493      1.030  0.001409196  23.0589        591
 3.50   0.0000    946.7222    443.5330  -8.94      436.168     1.342           15     1.216      0.955  0.001409037  21.4509        592
 6.96   0.0000   1125.0598    164.7228 -85.29     153.2722     0.729           15     0.669      1.043  0.001409675  22.5863        593
 3.50   0.0000    949.3659    825.2734  22.84     107.4676     1.103           15     0.906      1.299  0.001409995  22.9718        594
 6.48   0.0000    951.6313   1301.6997 -47.92     37.44986     0.577           15     0.332      1.235  0.001409037  24.1164        595
 4.01   0.0000   1399.6986   1029.9487  28.88     1317.139     1.765           15     1.515      1.331  0.001408557  20.2509        596
 6.01   0.0000   1477.3461   1022.5084  46.49     207.9718     1.400           15     0.771      1.965  0.001409675  22.2550        597
 3.82   0.0000   1437.7800    645.7078   3.42       405.23     1.472           15     1.033      1.266  0.001410154  21.5307        598
 3.94   0.0000   1437.7501   1269.6799 -57.52     825.2848     1.278           15     1.216      1.097  0.001409675  20.7585        599
 6.39   0.0000   1401.2941     61.0093   0.56     86.73886     0.740           15     0.671      1.133  0.001409995  23.2045        600
 7.15   0.0000   1464.1952    446.6033 -70.86     102.2481     0.759           15     0.446      1.323  0.001409835  23.0259        601
 6.63   0.0000   1474.9757   1569.1626   1.47     258.9638     0.929           15     0.765      1.836  0.001410314  22.0169        602
 4.15   0.0000    954.2116   1027.9540  88.46     141.8983     0.891           15     0.746      1.085  0.001410473  22.6701        603
 4.58   0.0000   1474.1271    996.7732 -17.04     981.8743     2.786           15     1.350      4.581  0.001410473  20.5699        604
 3.50   0.0000    949.6531    652.6551  89.17     908.2792     2.301           15     1.607      1.947  0.001410154  20.6545        605
 8.13   0.0000   1453.3553    660.3170 -46.60      82.6759     0.579           15     0.332      2.051  0.001409835  23.2566        606
 5.86   0.0000    962.9711    422.4233   3.06     127.8482     1.054           15     0.774      0.843  0.001410473  22.7833        607
 3.50   0.0000   1434.2593    223.0052 -34.69     4355.471     1.599           15     1.561      1.079  0.001411271  18.9524        608
 4.11   0.0000   1456.9529    610.4000  86.60     221.0166     1.103           15     0.933      1.534  0.001411271  22.1889        609
 7.40   0.0000   1461.2001   1381.2024 -45.48     301.6495     0.982           15     0.347      1.740  0.001410633  21.8512        610
 4.93   0.0000    958.5584    891.6923 -66.47     118.4269     0.907           15     0.818      1.055  0.001408877  22.8664        611
 3.50   0.0000   1436.1769    386.0578 -41.40     88.00613     0.812           15     0.657      1.371  0.001410792  23.1887        612
 5.30   0.0000   1453.9030    921.1025  44.42     204.9047     0.835           15     0.654      1.409  0.001408877  22.2711        613
 3.58   0.0000   1150.1428     97.7475 -34.24     1600.032     1.522           15     1.414      1.151  0.001409995  20.0397        614
 3.50   0.0000   1452.4902    389.9425  -2.38     376.0395     1.049           15     0.919      1.024  0.001409516  21.6119        615
 6.26   0.0000   1453.5001    165.0627   2.38      144.748     0.788           15     0.499      0.935  0.001409516  22.6485        616
 7.81   0.0000   1436.7727    995.5588  70.04     111.4128     0.743           15     0.454      1.715  0.001410952  22.9327        617
 4.13   0.0000   1448.3926     86.3629 -47.33     247.9286     1.023           15     0.926      1.022  0.001410633  22.0642        618
 7.80   0.0000   1444.3118   1513.6656  43.90     75.33288     0.568           15     0.338      1.415  0.001409835  23.3575        619
 3.50   0.0000   1387.8724   1427.1166 -71.54     8964.034     1.694           15     1.675      1.375  0.001409196  18.1687        620
 6.29   0.0000   1441.1157   1080.4375  41.33     36.75164     5.014           15     2.145     13.994  0.001410154  24.1368        621
 6.80   0.0000   1437.4752    178.5237  44.91     60.47557     0.508           15     0.491      1.006  0.001409516  23.5960        622
 7.04   0.0000   1431.5087   1279.1774 -47.31     110.4317     1.234           15     0.621      2.404  0.001409835  22.9423        623
 3.67   0.0011   1445.3171    729.8318 -74.08     1.353838     1.171           15     1.106      3.920  0.001410154  27.7211        624
 7.52   0.0000   1128.5692    872.3491  50.26     201.9165     1.096           15     0.945      2.539  0.001410792  22.2871        625
 3.50   0.0000   1129.2723   1143.1709 -67.34     161.1109     0.894           15     0.672      1.144  0.001410314  22.5322        626
 3.50   0.0000   1419.3446    427.6806 -38.79     212.2999     1.047           15     0.853      1.135  0.001409356  22.2326        627
 7.81   0.0000   1436.1604   1370.9841 -35.83     121.8393     0.942           15     0.470      2.953  0.001410792  22.8355        628
 3.50   0.0000   1435.2393   1345.9718 -43.42     526.8648     1.188           15     1.124      1.330  0.001410792  21.2458        629
 3.50   0.0000   1410.8943    365.4972 -65.97     282.1655     2.343           15     0.783      3.744  0.001408717  21.9237        630
 3.50   0.0000   1431.2135    339.0968  20.60     731.9619     1.990           15     1.305      1.891  0.001409995  20.8888        631
 4.16   0.0000   1128.6464    503.2986 -51.44     292.1663     0.994           15     0.868      1.449  0.001408398  21.8859        632
 3.84   0.0000   1171.6482    231.0432 -46.36     243.6589     1.066           15     1.028      0.841  0.001410633  22.0830        633
 3.50   0.0000   1438.7820    617.5147   4.87     3338.498     1.524           15     1.485      0.948  0.001410314  19.2411        634
 4.70   0.0000   1402.8423   1361.7327  83.63     405.7728     1.140           15     1.077      1.126  0.001410154  21.5293        635
 7.15   0.0000   1152.2003    574.8102 -43.26      198.315     0.765           15     0.565      1.299  0.001409995  22.3066        636
 3.50   0.0000   1410.1560    348.3412  51.54     1084.617     1.900           15     1.498      1.587  0.001410154  20.4618        637
 3.50   0.0000   1164.2910   1298.2390 -59.60     41902.41     1.990           15     1.934      1.541  0.001409356  16.4944        638
 7.19   0.0000   1402.3248   1343.8771 -74.55      250.565     1.063           15     0.744      2.525  0.001409516  22.0527        639
 3.50   0.0000   1172.3646    206.6083 -36.87      234.606     0.984           15     0.859      1.016  0.001410633  22.1242        640
 6.47   0.0000   1417.7408    105.0746 -29.06     175.7229     1.123           15     0.779      1.300  0.001409675  22.4379        641
 3.50   0.0000   1414.4266   1385.1614  46.25     2230.145     1.469           15     1.449      1.287  0.001410633  19.6792        642
 3.50   0.0000   1407.1147    306.5825 -31.76     3198.051     1.536           15     1.465      1.053  0.001410314  19.2878        643
 3.50   0.0000   1405.3016    328.1954 -37.62     980.7975     1.261           15     1.229      0.894  0.001409995  20.5711        644
 5.76   0.0000   1386.4846    675.8115 -89.60     112.9434     0.946           15     0.739      1.353  0.001410314  22.9178        645
 3.50  65.5334   1422.7793   1595.5918  31.97 2.197568e-05     1.065           15     0.783      2.982  0.001326097  39.6951        646
 3.50   0.0000   1392.3254    112.7036 -56.48     61270.42     2.068           15     2.004      1.563  0.001409516  16.0819        647
 3.50   0.0000   1391.2926   1037.2573 -48.51     2467.132     1.539           15     1.516      0.971  0.001409356  19.5695        648
 3.50   0.0000   1318.9834    658.3448   4.52     27268.41     1.907           15     1.876      1.419  0.001410792  16.9608        649
 3.92   0.0000   1361.6725    389.3143 -16.74     311.0012     1.392           15     0.890      1.396  0.001409196  21.8181        650
 3.86   0.0000   1307.3774    792.8642 -18.88     93.49986     0.750           15     0.444      1.105  0.001410633  23.1230        651
 6.97   0.0000   1383.4489      6.5013  15.45     100.8166     0.500           15     0.497      1.031   0.00137181  23.0412        652
 5.91   0.0000   1305.5100    506.4787 -55.14     118.8477     0.500           15     0.499      1.153  0.001409196  22.8625        653
 4.19   0.0000   1302.2607     40.9732  89.54     155.7514     0.893           15     0.745      1.387  0.001410633  22.5689        654
 7.20   0.0000   1400.5957     89.6927  -7.99     110.3951     0.977           15     0.476      1.578  0.001409675  22.9426        655
 5.16   0.0000   1391.6453   1533.0005 -74.64     443.0082     1.527           15     1.111      1.535  0.001411111  21.4340        656
 3.50   0.0000   1277.2112   1329.9398 -81.87     4871.438     1.670           15     1.607      1.239  0.001410952  18.8309        657
 5.09   0.0000   1385.0004   1273.9838 -87.13     513.4567     1.315           15     0.955      3.035  0.001409995  21.2737        658
 4.05   0.0000   1387.8507    805.0400 -29.36     799.3153     1.230           15     1.207      1.050  0.001410314  20.7932        659
 3.50   0.0000   1389.3979    711.6812  70.43     3299.283     1.634           15     1.546      1.118  0.001410473  19.2540        660
 3.50   0.0000   1387.6274   1583.8241 -18.53     281.0014     1.134           15     0.917      1.241  0.001410633  21.9282        661
 3.50   0.0000   1378.0994    317.4728 -15.04     559.5133     1.376           15     1.150      1.133  0.001409037  21.1805        662
 3.53   0.0000   1303.8020    891.3098 -39.64     1014.493     1.359           15     1.336      0.857  0.001409675  20.5344        663
 3.85   0.0000   1305.6521    572.7681 -17.18     265.1085     1.199           15     0.919      1.144  0.001410792  21.9914        664
 6.93   0.0000   1388.4099   1020.1890  20.31     76.15101     0.746           15     0.446      1.424  0.001409675  23.3458        665
 3.85   0.0000   1351.1841    150.2923  83.06     726.4225     2.464           15     1.713      3.055  0.001410314  20.8970        666
 3.50   0.0000   1328.8596    654.2327  -0.39     3511.419     1.814           15     1.680      1.050  0.001410473  19.1863        667
 6.05   0.0000   1384.6268   1383.2850 -19.26     239.4949     1.134           15     0.863      2.746  0.001410154  22.1018        668
 3.50   0.0000   1371.5348   1017.4493 -34.23     9819.104     1.948           15     1.786      1.155  0.001409995  18.0698        669
 8.50   0.0000   1370.6716   1405.6733 -45.08     50.13048     0.572           15     0.336      1.631  0.001409037  23.7997        670
 4.62   0.0000   1369.9498    705.0203  41.73     135.3748     0.784           15     0.760      0.872  0.001410473  22.7212        671
 3.63   0.0000   1367.2496    147.8044  46.57     418.9203     1.153           15     1.008      0.983  0.001411111  21.4947        672
 3.50   0.0000   1351.9924    965.6970 -86.84     176.4337     0.730           15     0.674      1.209  0.001410154  22.4335        673
 5.65   0.0000   1361.7979    525.0864 -83.79     231.4481     1.492           15     0.793      2.307  0.001410154  22.1389        674
 4.94   0.0000   1305.3479    842.9401 -67.81     339.4932     1.273           15     1.226      1.578  0.001409835  21.7229        675
 6.54   0.0000   1364.6437    360.7301 -49.77     65.60256     0.557           15     0.340      0.832  0.001409835  23.5077        676
 3.99   0.0000   1351.8099    473.9129 -85.68     220.4366     0.896           15     0.747      1.234  0.001410314  22.1918        677
 6.14   0.0000   1342.3513    988.7007 -12.86     167.2861     1.163           15     0.614      2.611  0.001408398  22.4914        678
 3.50   0.0000   1345.9407    192.7328 -18.74      280.409     1.095           15     1.034      1.151  0.001409835  21.9305        679
 3.50   0.0000   1345.2526    603.5727 -59.61     605.9557     1.416           15     1.254      1.277  0.001410792  21.0939        680
 6.87   0.0000   1338.0420   1478.8149   3.64     243.6749     0.924           15     0.747      2.489  0.001410633  22.0830        681
 3.50   0.0000   1306.4843    668.0394 -51.06      3150.74     1.963           15     1.619      1.080  0.001410154  19.3040        682
 3.50   0.0000   1329.3904    385.2614   0.76      777.572     1.317           15     1.245      1.004  0.001411111  20.8231        683
 6.80   0.0000   1308.0303    295.4801  88.97     160.9969     0.802           15     0.499      1.165  0.001410154  22.5330        684
 7.18   0.0000   1325.5175    582.4985 -44.01     83.04247     0.504           15     0.495      1.015  0.001408717  23.2517        685
 3.50   0.0000   1331.7177    105.6777 -30.20     1260.899     1.425           15     1.332      1.002  0.001409516  20.2983        686
 6.40   0.0000   1299.1119    845.1188 -41.83     111.3791     0.823           15     0.665      1.328  0.001409356  22.9330        687
 6.60   0.0000   1306.1716   1306.5820 -69.91     93.91395     0.728           15     0.453      1.141  0.001410314  23.1182        688
 5.01   0.0000   1316.0168   1355.6858  85.56     103.8735     0.734           15     0.670      1.207  0.001410314  23.0087        689
 7.41   0.0000   1325.6764    493.3161  45.38     147.8804     0.566           15     0.339      0.776  0.001409356  22.6252        690
 5.23   0.0000   1324.2227    631.9188  10.71     296.8176     1.829           15     0.858      2.015  0.001410314  21.8688        691
 3.50   0.0000   1318.3081    262.3835 -43.16     1111.413     1.325           15     1.272      0.961  0.001410314  20.4353        692
 3.50   0.0000   1297.3156    723.3217 -20.30     121942.8     2.701           15     2.156      1.748  0.001409516  15.3346        693
 4.70   0.0001   1311.0145    269.8142  29.53      11.4222     0.793           15     0.495      2.385  0.001410314  25.4056        694
 3.50   0.0000   1291.6217    411.0580  33.48     1407.773     1.389           15     1.364      0.887  0.001410792  20.1787        695
 3.54   0.0000   1272.8245    696.5016 -45.82     462.7918     1.457           15     1.252      1.086  0.001409356  21.3865        696
 3.50   0.0000   1290.3949    760.6170 -27.37     7537.454     2.292           15     1.741      1.437  0.001409995  18.3569        697
 3.50   0.0000   1271.7925    608.2729 -57.95     11012.85     4.667           15     2.658      6.338  0.001410952  17.9452        698
 3.65   0.0000   1211.9116   1427.8796  71.92     1726.027     2.929           15     2.356      4.785  0.001409356  19.9574        699
 3.90   0.0000   1290.6599    544.2174 -22.07     402.4224     1.130           15     1.052      0.884  0.001410314  21.5383        700
 3.91   0.0000   1298.1710     52.1966 -40.71      612.396     1.167           15     1.128      0.872  0.001410314  21.0824        701
 4.73   0.0000   1282.9822    860.6912 -87.39     115.1864     0.730           15     0.683      1.417  0.001410154  22.8965        702
 3.95   0.0000   1282.2820   1567.5828 -26.26     278.6206     0.953           15     0.922      1.038  0.001410473  21.9375        703
 3.91   0.0000   1261.1660    853.7747 -72.84     711.4991     1.343           15     1.191      1.193  0.001410314  20.9196        704
 5.73   0.0000   1197.2484    411.0043   9.50      91.8398     0.726           15     0.678      1.379  0.001411111  23.1424        705
 6.97   0.0000   1283.8115    335.5794  70.43     85.51954     0.733           15     0.454      1.398  0.001410154  23.2198        706
 3.50   0.0000   1180.6753    174.5650  31.55     664.8818     1.240           15     1.192      0.960  0.001409995  20.9931        707
 3.50   0.0000   1276.5549    341.9075   0.20      330.706     1.034           15     0.932      1.134  0.001409037  21.7514        708
 3.50   0.0000   1258.4600    430.8142  -1.79     1857.981     2.321           15     2.127      2.800  0.001410314  19.8774        709
 3.50   0.0000   1261.2974    214.4021 -17.06      439.225     1.149           15     1.049      1.067  0.001409995  21.4433        710
 7.82   0.0001   1266.6520   1225.3042  47.06     15.55148     0.570           15     0.336      1.290  0.001409037  25.0706        711
 5.91   0.0000   1175.6841     17.3702 -21.72     268.6639     1.513           15     0.855      2.785  0.001410154  21.9770        712
 3.58   0.0000   1227.7882   1152.1394   0.47     563.1791     1.255           15     1.178      1.094  0.001410952  21.1734        713
 5.38   0.0000   1222.0548    828.7744   4.01     95.27701     0.905           15     0.744      1.159  0.001410792  23.1025        714
 3.50   0.0000   1233.3180    303.1342  28.83     3188.597     1.552           15     1.517      1.057  0.001409196  19.2910        715
 4.52   0.0000   1242.9990    612.2227  22.63     280.7348     1.096           15     0.991      0.820  0.001410154  21.9293        716
 5.57   0.0000   1243.4988   1537.5070 -45.16     61.90207     0.504           15     0.496      1.398  0.001409037  23.5707        717
 3.50   0.0000   1236.5986     46.4781 -25.53     624.8788     1.261           15     1.241      0.988  0.001410633  21.0605        718
 4.43   0.0000   1220.3372   1429.9244  59.01     420.1906     1.344           15     1.192      1.793  0.001409516  21.4914        719
 6.94   0.0000   1223.4916    403.4926  44.85     80.86271     0.501           15     0.498      2.102  0.001408877  23.2806        720
 3.50   0.0000   1264.4142    806.2877 -53.13     3786.048     1.593           15     1.571      1.029  0.001410314  19.1045        721
 5.01   0.0000   1228.8615    597.3871   5.47     882.6445     2.081           15     2.001      1.666  0.001410633  20.6855        722
 5.75   0.0000   1237.0851    855.9023 -73.54     489.8053     1.518           15     1.205      1.775  0.001408717  21.3249        723
 4.34   0.0000   1184.2825    312.3333 -36.13      322.407     0.998           15     0.910      1.100  0.001409356  21.7790        724
 3.50   0.0000   1236.1543   1552.2007 -64.98     2021.926     1.582           15     1.452      1.329  0.001411111  19.7856        725
 3.50   0.0000   1218.0138   1193.4822  60.90     11142.87     2.049           15     1.918      1.357  0.001410633  17.9325        726
 4.85   0.0000   1209.7734    827.6089  22.76     249.3698     1.440           15     1.101      1.315  0.001410314  22.0579        727
 3.50   0.0000   1213.5752    511.3511 -71.46     16928.67     1.824           15     1.812      1.195  0.001410952  17.4784        728
 3.50   0.0000   1209.7395   1277.4863  80.71      9834.32     6.176           15     3.717      9.223  0.001409516  18.0681        729
 3.55   0.0000   1203.2452   1216.0127  72.83     286.5032     1.166           15     1.061      1.248  0.001410473  21.9072        730
 3.50   0.0000   1200.7378    337.4176 -86.10     2036.366     1.499           15     1.465      0.899  0.001410473  19.7779        731
 4.93   0.0000   1196.2183   1199.2244  47.96     152.9149     0.747           15     0.560      1.502  0.001410314  22.5889        732
 7.42   0.0000   1186.3083   1131.6680  43.81     82.72997     0.566           15     0.339      1.865  0.001409675  23.2558        733
 8.31   0.0000   1219.6639     73.3258  45.46     73.59563     0.575           15     0.335      2.230  0.001409356  23.3829        734
 3.50   0.0000   1200.0367   1440.7338  59.02     1351.852     1.878           15     1.677      1.660  0.001410473  20.2227        735
 7.05   0.0000   1207.5237    394.5313  51.21     101.8026     0.500           15     0.498      1.051  0.001409037  23.0306        736
 3.50   0.0000   1195.9851   1332.1587  -1.55     115.2164     0.903           15     0.752      1.134  0.001410633  22.8962        737
 4.02   0.0000   1209.6367   1414.3615  10.28     365.2388     1.431           15     1.090      1.551  0.001410792  21.6436        738
 3.50   0.0000   1206.7356    837.2420 -42.35     2098.351     1.525           15     1.459      0.950  0.001410154  19.7453        739
 4.38   0.0000   1208.1086   1453.4905 -89.78     122.4907     0.780           15     0.500      1.306  0.001408877  22.8297        740
 4.01   0.0000   1194.0066    122.5322 -66.08     1810.632     2.595           15     2.094      2.362  0.001411111  19.9054        741
 5.16   0.0000   1179.3643   1402.4216 -43.13     192.9834     1.084           15     0.936      1.327  0.001410473  22.3362        742
 3.72   0.7406   1176.0363   1597.4006 -76.06  0.001796943     1.029           15     0.998      3.780  0.001225369  34.9137        743
 7.09   0.0000   1192.6534   1420.2950  47.58     99.08389     0.566           15     0.338      0.846  0.001409516  23.0600        744
 5.47   0.0000   1185.2479    389.9908  -3.32     104.2827     0.735           15     0.673      1.444  0.001410952  23.0045        745
 5.82   0.0000   1185.9545   1232.9056  71.99     63.03466     0.967           15     0.706      1.726  0.001409037  23.5511        746
 6.78   0.0000   1174.8807    251.6942 -20.68     170.1833     0.927           15     0.680      1.023  0.001409356  22.4727        747
 5.31   0.0000   1146.6664    110.8157 -14.64     208.3879     1.115           15     0.936      1.011  0.001410792  22.2528        748
 3.65   0.0000   1179.9652    547.8386  32.35     817.8995     1.345           15     1.310      1.072  0.001410633  20.7682        749
 3.66   0.0000   1124.3577    274.8493  65.66     177.9498     0.871           15     0.691      1.251  0.001410633  22.4243        750
 4.46   0.4637   1166.0645   1598.8287  86.76  0.002643636     1.452           15     1.004      4.447  0.001128817  34.4945        751
 6.89   0.0000   1154.3459   1123.8079 -16.13     130.4002     0.773           15     0.442      1.426   0.00141143  22.7618        752
 7.66   0.0000   1178.2037   1306.0736  31.19     111.6071     1.002           15     0.647      2.091  0.001411111  22.9308        753
 4.93   0.0000   1157.0204    184.1851 -56.26     237.7174     1.314           15     1.109      1.380  0.001409995  22.1098        754
 3.96   0.0000   1160.7228    886.1577  -9.24     721.3088     1.344           15     1.222      1.042  0.001409995  20.9047        755
 3.50   0.0000   1152.6722   1351.5509   3.54     1092.031     1.706           15     1.688      1.339  0.001409516  20.4544        756
 5.77   0.0000   1155.5414    349.9696 -85.86     164.3442     1.017           15     0.784      1.232  0.001410792  22.5106        757
 7.08   0.0006   1161.4742      1.5288 -45.40     1.918609     0.505           15     0.493      2.641  0.001080118  27.3425        758
 3.50   0.0000   1156.7539    234.6796 -63.99     6413.486     1.698           15     1.682      1.051  0.001409675  18.5323        759
 4.56   0.0000   1154.9893    565.8511 -79.33     316.8773     1.539           15     1.143      1.521  0.001411111  21.7978        760
 3.50   0.0000   1137.4583    146.3166 -43.84     28956.79     1.940           15     1.910      1.410  0.001409516  16.8956        761
 6.40  74.1824   1088.5327    781.5435  48.57 2.063706e-05     2.016           15     0.759      7.369  0.001409675  39.7634        762
 3.50   0.0000   1129.1438    217.8241  -0.95     743.9186     1.675           15     1.375      1.159  0.001410633  20.8712        763
 3.50   0.0000   1128.9299    181.7596 -62.42     17705.46     1.838           15     1.787      1.297  0.001410314  17.4297        764
 5.95   0.0000   1076.9996    467.1200  -3.34     140.8793     0.901           15     0.754      1.153  0.001410633  22.6779        765
 3.67   0.0000   1128.2001    545.7900 -55.11      727.896     1.373           15     1.320      1.093  0.001409995  20.8948        766
 7.74   0.0000   1134.3350    249.3081 -46.33     33.89825     0.567           15     0.339      1.119  0.001409835  24.2246        767
 8.96   0.0000   1139.0133    423.5020  58.48     132.3042     0.815           15     0.306      1.811  0.001409675  22.7461        768
 4.23   0.0000   1130.0414    357.5908 -12.40     503.4971     1.289           15     1.086      1.008  0.001410633  21.2950        769
 3.50   0.0000   1119.3019    328.0937  58.93     2379.425     3.069           15     1.905      3.925  0.001409037  19.6088        770
 4.34   0.0000   1144.5825   1337.3035 -25.99     165.2123     1.687           15     0.609      2.719  0.001410154  22.5049        771
 5.23   0.0000   1127.1694    836.2650  65.75     203.1412     1.093           15     0.868      1.001  0.001410314  22.2805        772
 7.69   0.0000   1121.9967    916.5061  88.18     97.50607     0.789           15     0.500      2.033  0.001409835  23.0774        773
 5.45   0.0000   1091.9540    427.5959  30.78      473.601     2.388           15     1.739      2.850  0.001411111  21.3615        774
 3.50   0.0000   1105.7854   1265.6273  14.09     176.9086     0.948           15     0.920      1.019  0.001410473  22.4306        775
 4.42   0.0000   1089.9325    466.4830 -60.63     860.3621     2.919           15     1.404      3.545  0.001409516  20.7133        776
 6.63   0.0000   1114.8882    505.8844 -45.23     94.37135     0.842           15     0.662      1.323  0.001409356  23.1129        777
 3.50   0.0000   1115.6307   1168.9203 -26.85     258.5787     1.664           15     1.118      1.711  0.001410154  22.0185        778
 3.50   0.0000   1106.4395    426.3419  -6.24     7869.114     1.744           15     1.718      1.064  0.001410314  18.3102        779
 5.79   0.0000   1107.8602   1122.0044 -88.69     179.1204     0.898           15     0.759      1.271  0.001411271  22.4171        780
 5.00   0.0000   1110.1006    477.9549  24.60     1787.415     3.426           15     2.382      6.924  0.001408717  19.9194        781
 5.74   0.0000   1107.0505    969.7090 -68.07     144.2305     0.721           15     0.691      1.223  0.001409835  22.6524        782
 3.50   0.0000   1093.6868   1134.7550  57.18     361.4706     1.188           15     1.118      1.120  0.001409835  21.6548        783
 5.93   0.0000   1083.3468    844.8585  28.88     121.1625     0.864           15     0.597      1.211  0.001409995  22.8416        784
 6.29   0.0000   1097.9957    861.5091  87.45     57.42601     0.779           15     0.499      1.316  0.001409675  23.6522        785
 8.51   0.0000   1100.4910   1350.5159 -45.58     113.1052     0.504           15     0.496      1.340  0.001409196  22.9163        786
 3.50   0.0000   1094.6219   1525.1770 -27.34     1074.155     1.351           15     1.273      1.222  0.001410473  20.4723        787
 3.52   0.0000   1078.3165    328.4367 -34.99      640.636     1.289           15     1.259      0.971  0.001410314  21.0335        788
 3.50   0.0000   1079.0317    510.4756 -17.11     29895.32     1.935           15     1.916      1.439  0.001409995  16.8610        789
 3.94   0.0000    977.8196   1064.9083 -42.01     145.6915     0.814           15     0.660      1.307  0.001410154  22.6414        790
 3.50   0.0000   1085.4923   1451.3832  71.78     391.3192     1.706           15     1.265      1.725  0.001410314  21.5687        791
 4.50   0.0000   1087.1938    395.1696  61.36     331.4017     1.472           15     1.152      1.463  0.001410314  21.7491        792
 3.50   0.0000   1080.8446   1146.6871  66.88     10950.14     1.762           15     1.739      1.178  0.001409675  17.9515        793
 4.85   0.0000    976.0895   1279.0640 -32.46     157.1462     0.782           15     0.776      1.288  0.001409675  22.5592        794
 4.11   0.0000   1027.3408    350.5623 -39.69     213.2133     1.012           15     0.864      1.494  0.001410473  22.2280        795
 3.85   0.0000    964.1137    414.7538  -9.76      432.931     1.304           15     1.195      1.018  0.001409995  21.4590        796
 6.65   0.0000    973.0317    546.8406  32.87     108.8354     1.182           15     0.985      1.115  0.001410952  22.9581        797
 6.49   0.0000   1086.1091   1010.4985 -89.77     120.7017     0.781           15     0.500      1.323  0.001408877  22.8457        798
 3.76   0.0000    979.9752    796.2892 -70.10     987.0953     2.008           15     1.747      1.458  0.001409995  20.5641        799
 3.55   0.0000   1071.1847   1217.5300 -73.77     1871.672     2.621           15     2.147      2.429  0.001411271  19.8694        800
 3.80   0.0000   1065.7677    567.4854 -51.29     340.0916     1.440           15     1.191      0.982  0.001410314  21.7210        801
 4.49   0.0000   1073.4939    350.8316  56.27     304.0133     1.567           15     1.167      1.797  0.001409675  21.8428        802
 3.50   0.0000   1018.5303   1153.2947   0.29     212.9575     1.111           15     0.957      0.910  0.001409516  22.2293        803
 4.56   0.0000    977.1621    451.1198 -47.03     535.9889     1.428           15     1.330      1.228  0.001409995  21.2271        804
 3.91   0.0000   1016.2694    199.5807  19.02      289.326     1.236           15     1.122      1.247  0.001411111  21.8965        805
 3.56   0.0000   1062.9010    290.3269 -17.97     273.5443     1.324           15     1.091      1.346  0.001409037  21.9574        806
 3.50   0.0000   1067.1228   1472.6680  14.35     512.9368     2.820           15     1.652      5.124  0.001409037  21.2748        807
 3.50   0.0000   1064.8362   1595.6910 -33.63     102.3342     1.258           15     1.149      3.252  0.001321507  23.0249        808
 8.50   0.0000   1063.4945   1411.5537 -76.20     59.55985     0.500           15     0.497      1.143  0.001409037  23.6126        809
 3.85   0.0000   1064.2731   1561.5967 -67.96     1121.713     2.917           15     1.883      5.113  0.001410792  20.4253        810
 4.68   0.0000    981.2909   1485.5188 -87.99     250.6896     1.074           15     0.965      1.018  0.001409516  22.0522        811
 3.62   0.0000    983.6367    952.3669 -44.22     145.4072     1.025           15     0.849      1.574  0.001410792  22.6435        812
 4.74   0.0000   1046.8132   1157.0244  25.52     157.3052     1.027           15     0.833      1.375  0.001410154  22.5581        813
 4.35   0.0000   1051.7396    398.9902 -86.66     235.5122     1.360           15     1.021      1.505  0.001411111  22.1200        814
 7.75   0.0000   1057.3187   1123.3470 -43.78     114.7026     0.577           15     0.333      1.707  0.001409356  22.9011        815
 3.50   0.0000   1037.6909    523.7844  79.77     9297.134     1.779           15     1.739      1.206  0.001410314  18.1291        816
 4.95   0.0000   1042.3434    808.2131  46.39     182.0856     0.944           15     0.935      1.426  0.001410792  22.3993        817
 3.50   0.0000   1051.3563    236.0323  36.32     203.4324     1.449           15     1.124      1.439  0.001410952  22.2789        818
 5.52   0.0000   1052.6809   1383.9104   7.64     138.5636     0.730           15     0.664      1.323  0.001409356  22.6959        819
 4.83   0.0000   1039.5861    465.5739  35.28     284.2529     1.470           15     1.236      1.508  0.001410314  21.9157        820
 4.12   0.0000   1027.0326    462.3943  -3.86     164.5503     0.976           15     0.771      0.893  0.001410633  22.5093        821
 4.60   0.0000   1047.2170    207.1093 -27.54     156.1313     0.924           15     0.859      1.532  0.001410314  22.5663        822
 3.50   0.0000   1039.2816    631.3826 -47.77     35323.24     2.058           15     1.928      1.452  0.001410633  16.6798        823
 3.50   0.0000   1041.6345   1094.2766  32.33     201.6216     1.357           15     0.916      1.391  0.001409995  22.2887        824
 6.11   0.0000   1027.9122    179.0766 -49.33     180.5092     1.311           15     1.163      2.289  0.001409037  22.4088        825
 7.67   0.0000   1045.3263   1525.2911 -47.02     69.39288     0.555           15     0.343      1.691  0.001409516  23.4467        826
 3.50   0.0000   1029.2361    300.9309  68.34     1807.152     2.876           15     2.043      3.833  0.001410473  19.9075        827
 3.50   0.0000   1025.4961   1265.4883 -47.80     51.39911     0.913           15     0.893      1.125  0.001408717  23.7726        828
 3.50   0.0000   1020.2513   1267.1864  48.83     292.6396     2.423           15     1.154      3.158  0.001410952  21.8842        829
 4.84   0.0000   1032.6776    492.1187   7.78      136.663     0.926           15     0.617      1.449  0.001409835  22.7109        830
 5.15   0.0000   1036.3781    240.4039 -37.49     204.5178     1.026           15     0.934      1.054  0.001410154  22.2732        831
 3.50   0.0000   1008.8684    812.1067 -84.81     18152.11     1.849           15     1.815      1.345  0.001409516  17.4027        832
 4.11   0.0000   1031.0706   1166.3317  84.20     92.51952     0.725           15     0.656      0.941  0.001408877  23.1344        833
 4.59   0.0000    992.2519    498.1241 -23.05     193.4506     1.113           15     0.989      1.274  0.001409356  22.3336        834
 4.24   0.0000   1028.9324    945.9547 -38.54     120.8072     0.805           15     0.755      1.409  0.001410154  22.8448        835
 3.50   0.0000   1024.8666   1378.5500 -84.80     19784.07     1.921           15     1.805      1.422  0.001409835  17.3092        836
 4.75   0.0000   1078.1774    920.7841   1.45     189.6578     1.076           15     0.991      1.219  0.001409995  22.3551        837
 5.33   0.0000   1022.9832    581.0149  84.25     52.79672     0.616           15     0.614      1.448  0.001410314  23.7435        838
 3.50   0.0000   1013.5270    451.3892  27.54     395.3753     1.343           15     1.169      1.057  0.001411111  21.5575        839
 4.41   0.0455   1026.7218    605.8601 -20.30   0.03361007     1.087           15     0.984      2.506  0.001409675  31.7338        840
 3.70   0.0000   1028.5109   1033.9430  60.24     123.1792     0.972           15     0.665      1.300  0.001409516  22.8237        841
 3.50   0.0000   1010.2828    343.0844 -16.33     2740.498     1.576           15     1.559      1.099  0.001409196  19.4554        842
 5.06   0.0000   1009.9666    266.0705  42.72      440.301     1.441           15     1.262      1.396  0.001410314  21.4406        843
 3.50   0.0000    983.9276    556.8610 -48.34     26667.81     1.912           15     1.889      1.405  0.001409835  16.9850        844
 6.95   0.0000   1008.5217    188.9735  88.11     89.61921     0.793           15     0.704      1.390  0.001410154  23.1690        845
 4.69   0.0000    991.4377    344.4911 -43.11     241.6657     1.063           15     0.845      1.028  0.001409516  22.0920        846
 4.33   0.0000    985.7134    452.4680  55.04     1206.972     2.311           15     2.021      2.170  0.001409196  20.3458        847
 3.50   0.0000   1003.4240   1236.5613  43.92      143.633     1.109           15     0.819      1.113  0.001410633  22.6569        848
 3.50   0.0000   1000.7160    541.0248  19.40      2904.77     1.639           15     1.607      1.143  0.001410154  19.3922        849
 3.50   0.0000   1000.5336   1554.0953  48.35     1274.465     1.408           15     1.386      1.339  0.001409675  20.2867        850
 3.50   0.0000    998.9175   1272.4537 -31.29     982.7692     1.426           15     1.279      1.281  0.001409356  20.5689        851
 4.42   0.0000    998.8193   1439.8516 -46.52     57.07185     0.810           15     0.662      1.359  0.001410633  23.6589        852
