#   1 KRON_RADIUS            Kron apertures in units of A or B                         
#   2 MAGERR_APER            RMS error vector for fixed aperture mag.                   [mag]
#   3 Y_IMAGE                Object position along y                                    [pixel]
#   4 X_IMAGE                Object position along x                                    [pixel]
#   5 FLUX_APER              Flux vector within fixed circular aperture(s)              [count]
#   6 THRESHOLD              Detection threshold above background                       [count]
#   7 THETA_IMAGE            Position angle (CCW/x)                                     [deg]
#   8 A_IMAGE                Profile RMS along major axis                               [pixel]
#   9 B_IMAGE                Profile RMS along minor axis                               [pixel]
#  10 FLUX_RADIUS            Fraction-of-light radii                                    [pixel]
#  11 FLUXERR_APER           RMS error vector for aperture flux(es)                     [count]
#  12 MAG_APER               Fixed aperture magnitude vector                            [mag]
#  13 NUMBER                 Running object number                                     
 4.23   0.0000     53.2652     63.6543     82110.84      43.5214   3.17     5.181     4.630      1.931   0.01778181  15.7640          1
 3.95   0.0000     16.5149    985.0804     13074.48      43.5214 -88.61     4.203     1.941      1.564   0.01777577  17.7589          2
 4.06   0.0000     18.0504     91.3141     12384.43      43.5214   0.42     1.768     1.716      0.550    0.0177798  17.8178          3
 3.50   0.0000     14.6167   1445.7477     32477.54      43.5214 -47.82     1.890     1.819      0.652   0.01779389  16.7710          4
 8.12   0.0000     10.2946   1183.6542     483.3098      43.5214  42.42     0.565     0.339      0.643   0.01777577  21.3394          5
 7.36   0.0000      4.2259    145.0241     413.9983      43.5214  89.83     0.957     0.768      1.463   0.01593647  21.5075          6
 6.64   0.0000     17.2495    384.5071      1106.76      43.5214  19.99     0.993     0.952      0.677   0.01777376  20.4399          7
 5.14   0.0000     24.7971    367.2085     2359.479      43.5214  13.81     1.305     1.234      0.462   0.01778181  19.6180          8
 3.50   0.0000     59.7850   1078.4766     117252.4      43.5214  77.02     2.287     2.159      0.832   0.01779993  15.3772          9
 8.57   0.0000     23.7800    383.3999     699.2462      43.5214 -71.85     0.755     0.452      0.801   0.01778785  20.9384         10
 6.41   0.0000     33.9023   1110.1802     1089.404      43.5214  68.24     1.657     0.778      1.563    0.0177798  20.4570         11
 7.88   0.0000     33.3076    326.9492     693.9896      43.5214  -6.92     0.747     0.677      1.064   0.01777779  20.9466         12
 5.98   0.0000     37.8655   1521.1591     665.1979      43.5214  46.72     0.834     0.669      0.452   0.01778785  20.9926         13
 7.05   0.0000     38.8750   1170.6508     581.5024      43.5214 -19.52     0.923     0.691      0.611   0.01777577  21.1386         14
 5.87   0.0000     42.4605    915.4996     694.5355      43.5214 -77.10     0.913     0.907      0.730   0.01777376  20.9458         15
 3.50   0.0000     80.1536    537.6561       104830      43.5214 -59.56     2.145     2.122      0.832   0.01778584  15.4988         16
 9.02   0.0000     44.6655    440.6699     624.1839      43.5214 -45.19     0.576     0.334      1.128   0.01777779  21.0617         17
 4.26   0.0000     75.2162    128.0142     5139.576      43.5214  -5.75     1.516     1.469      0.505   0.01778785  18.7727         18
 6.64   0.0000     82.2787    421.5101     929.5187      43.5214 -15.66     0.994     0.986      0.869   0.01777376  20.6294         19
 3.50   0.0000    121.8120    789.2006     156048.8      43.5214 -62.81     2.230     2.179      0.821   0.01778785  15.0668         20
 6.02   0.0000     90.7295    376.9918     1957.307      43.5214   4.47     1.628     1.442      1.818    0.0177959  19.8209         21
 4.42   0.0000     96.6151     56.2576     7542.613      43.5214 -38.95     1.639     1.566      0.589   0.01778986  18.3562         22
 6.10   0.0000     98.0585    452.9797     1382.486      43.5214 -14.82     1.454     1.005      1.016   0.01779389  20.1983         23
 7.39   0.0000     91.4945    495.9650     687.6674      43.5214  -1.40     0.788     0.500      0.549   0.01777577  20.9566         24
 3.50   0.0000    162.2989   1468.3301     96722.23      43.5214 -48.48     2.111     2.074      0.772   0.01777779  15.5862         25
 6.85   0.0000    131.2865    418.0175     442.0229      43.5214   5.64     0.729     0.681      0.519   0.01778584  21.4364         26
 3.55   0.0000    170.2996    877.3505      29160.8      43.5214  -8.96     1.882     1.865      0.718   0.01776369  16.8880         27
 8.52   0.0000    151.4999   1280.4825     581.7601      43.5214 -47.88     0.501     0.498      0.713    0.0177657  21.1381         28
 5.51   0.0000    164.9741   1445.6677     2004.831      43.5214  17.35     1.303     1.186      0.503   0.01778986  19.7948         29
 4.82   0.0000    166.8505    104.4303     1723.273      43.5214 -46.35     1.196     1.124      0.585   0.01779389  19.9591         30
 6.42   0.0000    169.3397   1368.8977     509.5975      43.5214  68.06     0.910     0.689      0.612   0.01777376  21.2819         31
 7.68   0.0000    180.3316    574.9897     1057.786      43.5214  53.18     1.039     0.643      1.122   0.01779791  20.4890         32
 7.49   0.0000    186.6387   1354.8976     848.2344      43.5214  75.59     1.045     0.753      0.760   0.01777175  20.7287         33
 5.30   0.0000    192.6023   1350.5554     2676.567      43.5214 -19.15     1.368     1.305      0.684   0.01779791  19.4811         34
 4.77   0.0000    210.7202    827.6749     8939.339      43.5214  -5.78     3.810     2.091      1.401    0.0177798  18.1717         35
 4.14   0.0000    206.7225    549.0807     5316.898      43.5214   3.37     1.545     1.484      0.461   0.01778181  18.7359         36
 4.19   0.0000    212.1664   1306.1005     5007.631      43.5214 -64.54     1.516     1.487      0.434   0.01776771  18.8009         37
 5.52   0.0000    230.1494    562.2775     8193.616      43.5214 -37.31     3.231     3.004      3.601   0.01777577  18.2663         38
 5.76   0.0000    210.8939    684.8484     1253.995      43.5214 -66.39     1.218     1.115      0.797   0.01777376  20.3043         39
 3.50   0.0000    259.7588    997.4791     253407.3      43.5214 -48.81     2.331     2.263      0.881   0.01778383  14.5405         40
 3.92   0.0000    223.9121   1226.0618     6102.049      43.5214  25.89     1.523     1.479      0.395   0.01777779  18.5863         41
 4.86   0.0000    222.6267    774.9695      1961.76      43.5214  81.57     1.224     1.191      0.544   0.01778986  19.8184         42
 3.50   0.0000    265.9002     67.6173     191538.3      43.5214 -49.31     2.268     2.237      0.847    0.0177798  14.8444         43
 5.52   0.0000    243.9732    112.8913     3271.018      43.5214 -88.19     1.951     1.539      1.016   0.01778181  19.2633         44
 4.81   0.0000    255.4885    613.0098     8488.376      43.5214 -41.01     2.436     2.028      0.959   0.01778785  18.2279         45
 6.52   0.0000    239.3535    838.8231     1060.741      43.5214  -5.84     1.203     1.102      0.849   0.01779188  20.4860         46
 7.18   0.0000    250.5180    107.4840     978.0786      43.5214 -42.78     1.108     0.852      0.739   0.01777577  20.5741         47
 3.50   0.0000    287.5196   1486.4733     57776.84      43.5214 -43.97     2.033     1.992      0.755   0.01777779  16.1456         48
 3.66   0.0000    281.9236   1522.4003      14144.6      43.5214   3.77     1.701     1.668      0.544   0.01778986  17.6735         49
 6.46   0.0000    270.7727   1273.6278     975.2442      43.5214  16.49     1.000     0.849      0.644   0.01779188  20.5772         50
 3.50   0.0000    303.1506    201.7659     46029.24      43.5214 -78.11     1.968     1.942      0.677   0.01778986  16.3924         51
 6.27   0.0000    293.2967   1475.8354     1899.445      43.5214 -33.66     1.250     1.086      0.703   0.01776973  19.8534         52
 4.64   0.0000    302.2875    563.6751     2481.785      43.5214  31.81     1.325     1.283      0.641   0.01777376  19.5631         53
 3.50   0.0000    322.0853    697.3419     33315.57      43.5214   1.78     1.882     1.848      0.634    0.0177798  16.7434         54
 7.64   0.0000    308.7069     85.2985     834.6333      43.5214  45.78     0.969     0.767      1.121   0.01777175  20.7463         55
 6.05   0.0000    321.9905    641.4783     1940.839      43.5214 -64.00     1.799     1.232      1.641   0.01779188  19.8300         56
 5.16   0.0000    327.5369    595.4523      4336.02      43.5214 -52.10     1.728     1.694      0.788   0.01778181  18.9573         57
 6.07   0.0000    329.2517   1546.0168     1018.904      43.5214 -87.78     0.913     0.756      0.493   0.01779389  20.5297         58
 5.83   0.0000    332.2679     93.4347     1251.054      43.5214  20.40     0.992     0.948      0.679   0.01778986  20.3068         59
 4.78   0.0000    350.1319     54.7084     2822.905      43.5214  -8.51     1.366     1.298      0.534   0.01777577  19.4233         60
 3.50   0.0000    368.1670    761.1217     33470.93      43.5214 -26.12     1.940     1.871      0.589   0.01778584  16.7383         61
 4.02   0.0000    361.1491   1500.4037     5649.615      43.5214 -15.08     1.586     1.464      0.624   0.01779993  18.6700         62
 3.50   0.0000    395.2009    231.4691     116867.1      43.5214 -63.05     2.184     2.143      0.836    0.0177959  15.3808         63
 5.78   0.0000    360.5269   1034.0070     1337.513      43.5214  -1.40     1.111     0.957      0.513    0.0177959  20.2343         64
 6.91   0.0000    375.4792    754.0627      1099.18      43.5214  56.22     1.715     0.961      1.417   0.01777577  20.4473         65
 7.68   0.0000    370.3091     71.9499     647.7859      43.5214 -10.89     0.743     0.672      0.658   0.01778181  21.0214         66
 6.47   0.0000    373.4826   1083.8826     1015.939      43.5214 -17.84     1.100     0.990      0.986   0.01777577  20.5328         67
 6.41   0.0001    380.6161      1.4882     180.9651      43.5214 -89.79     1.601     0.500      2.787   0.01359162  22.4060         68
 3.50   0.0000    397.0519   1461.2017     23315.33      43.5214 -44.85     1.804     1.797      0.486   0.01779993  17.1309         69
 3.50   0.0000    398.1799    354.6261     26414.73      43.5214 -13.53     1.890     1.844      0.657   0.01778785  16.9954         70
 8.09   0.0000    375.6552     87.2937     607.3694      43.5214  47.61     0.564     0.339      0.674   0.01777779  21.0914         71
 6.71   0.0000    380.1594    125.8447     854.2806      43.5214  44.65     0.818     0.680      0.600   0.01779188  20.7210         72
 4.22   0.0000    393.8183   1088.7736      5467.05      43.5214 -35.06     1.516     1.449      0.532   0.01778986  18.7056         73
 8.89   0.0000    382.4900     67.5055     699.0818      43.5214 -44.69     0.503     0.497      0.768   0.01776973  20.9387         74
 8.07   0.0000    388.6902   1195.3347     534.3475      43.5214  43.77     0.567     0.338      0.675   0.01778181  21.2304         75
 6.14   0.0000    412.0432      1.7727     413.1209      43.5214  90.00     2.505     0.701      3.850   0.01387576  21.5098         76
 7.90   0.0000    396.8768    626.5975     1723.674      43.5214 -73.71     1.239     0.985      1.452   0.01778986  19.9589         77
 8.16   0.0000    403.6928    526.4366     743.2466      43.5214  81.17     1.023     0.476      1.170   0.01777779  20.8722         78
 7.54   0.0000    407.0518    282.4902     649.4223      43.5214 -88.59     0.787     0.500      0.601   0.01778181  21.0187         79
 3.50   0.0000    437.9478    252.1072     50664.51      43.5214 -87.21     2.006     1.974      0.599   0.01777779  16.2882         80
 3.50   0.0000    461.0704    807.6703     289927.7      43.5214 -68.51     2.341     2.304      0.888   0.01776771  14.3943         81
 5.83   0.0000    420.9021    159.0900     2037.509      43.5214  37.62     1.694     1.421      1.145   0.01776973  19.7773         82
 7.67   0.0000    419.5386   1580.4929     620.8237      43.5214  40.47     0.504     0.495      0.717   0.01777779  21.0676         83
 4.17   0.0000    432.9492   1422.0629     3580.603      43.5214   6.85     1.427     1.396      0.380   0.01778181  19.1651         84
 6.72   0.0000    426.5748   1179.2787     1258.153      43.5214  26.35     1.188     0.957      0.981   0.01778785  20.3007         85
 6.42   0.0000    426.8329    433.0970     76112.42      43.5214  -3.27     2.183     0.735      3.822   0.01777376  15.8464         86
 5.15   0.0000    434.2586    151.1154     1677.537      43.5214 -20.05     1.138     1.034      0.489    0.0177798  19.9883         87
 3.88   0.0000    450.3392     21.3603     16637.56      43.5214 -27.47     1.777     1.769      0.676   0.01778986  17.4973         88
 5.07   0.0000    467.7993    850.4810     10551.73      43.5214  22.59     7.403     2.054      4.343   0.01778986  17.9917         89
 9.05   0.0000    430.6650    719.3185     1009.162      43.5214  45.76     0.572     0.336      1.996   0.01777376  20.5401         90
 4.48   0.0000    440.0043    305.8401     1804.863      43.5214  22.45     1.160     1.136      0.419   0.01778986  19.9089         91
 5.42   0.0000    445.2589    122.3780     1972.147      43.5214 -23.52     1.401     1.309      0.768   0.01779389  19.8127         92
 3.80   0.0000    457.8408     34.5939     18777.51      43.5214 -30.83     1.779     1.767      0.577   0.01779188  17.3659         93
 8.05   0.0000    443.6886    655.3237     533.9614      43.5214  44.36     0.563     0.340      0.586   0.01777175  21.2312         94
 4.32   0.0000    463.6414    468.6490     5479.159      43.5214  70.99     1.619     1.558      0.620   0.01779389  18.7032         95
 6.24   0.0000    452.9206   1533.0249     941.6439      43.5214 -31.03     0.792     0.774      0.420   0.01778785  20.6153         96
 5.22   0.0000    460.9918   1096.1410     1673.999      43.5214  47.71     1.191     1.080      0.572   0.01779993  19.9906         97
 4.60   0.0000    471.3581    254.2742     4742.325      43.5214 -79.51     1.510     1.439      0.659   0.01778383  18.8600         98
 4.03   0.0000    472.1380    734.9207      6934.91      43.5214  75.27     1.566     1.511      0.414   0.01777577  18.4474         99
 7.71   0.0000    461.8358    724.7247     951.1758      43.5214 -20.12     0.949     0.683      0.949   0.01778383  20.6043        100
 3.70   0.0000    477.9271    923.0840     8823.133      43.5214 -28.67     1.679     1.612      0.412   0.01777577  18.1859        101
 4.34   0.0000    477.2791   1276.4363     3040.926      43.5214 -44.53     1.334     0.920      0.951   0.01778383  19.3425        102
 5.84   0.0000    488.9431    839.6031     1295.313      43.5214  87.10     2.059     0.959      1.670   0.01779993  20.2691        103
 4.14   0.0000    484.0388   1070.6680     3955.186      43.5214 -80.82     1.429     1.400      0.512   0.01778785  19.0571        104
 7.10   0.0000    475.9789   1168.4807     648.4432      43.5214  89.68     0.781     0.500      0.558   0.01778986  21.0203        105
 5.40   0.0000    496.2654     82.9187      5172.05      43.5214  66.13     2.311     2.046      1.957   0.01777376  18.7658        106
 6.87   0.0000    478.8629    682.8434     733.2713      43.5214 -46.10     0.819     0.679      0.561   0.01778383  20.8868        107
 5.12   0.0000    495.7248   1186.8407      5208.32      43.5214 -15.71     2.996     1.931      2.246   0.01778383  18.7583        108
 5.26   0.0000    504.0796    762.8668     2957.239      43.5214 -10.71     1.688     1.646      1.210   0.01777376  19.3728        109
 4.77   0.0000    502.0138    863.8067     1984.036      43.5214  64.62     1.201     1.192      0.398   0.01777779  19.8061        110
 4.57   0.0000    515.3623   1461.0657     6909.838      43.5214  23.93     4.115     1.649      2.032   0.01778986  18.4513        111
 6.08   0.0000    498.0054    366.2516     883.1098      43.5214   0.37     0.926     0.749      0.543   0.01779993  20.6850        112
 6.08   0.0000    509.9191    164.8152      2015.55      43.5214  -5.95     1.820     1.073      1.339   0.01779188  19.7890        113
 4.83   0.0000    513.8598   1179.1876     2215.324      43.5214  24.06     1.285     1.178      0.488   0.01779188  19.6864        114
 5.52   0.0000    519.1540    641.9484     1522.871      43.5214  22.36     1.200     1.120      0.659    0.0177959  20.0933        115
 6.45   0.0000    518.1915   1519.1722     761.8182      43.5214  45.74     0.761     0.567      0.580   0.01778986  20.8454        116
 4.09   0.0000    540.2067    999.9378     5629.169      43.5214  61.15     1.534     1.490      0.454   0.01779791  18.6739        117
 6.53   0.0000    536.3547    404.5305     931.8708      43.5214  38.93     1.195     0.786      1.002   0.01778181  20.6266        118
 3.90   0.0000    558.9035   1041.7982     7461.265      43.5214   6.20     1.633     1.563      0.450   0.01778584  18.3680        119
 4.74   0.0000    571.3472     45.9143     4584.287      43.5214  46.17     2.084     1.522      1.009   0.01777779  18.8968        120
 5.98   0.0000    555.8228    778.8107     638.4673      43.5214  44.57     0.756     0.567      0.476   0.01778584  21.0372        121
 3.50   0.0000    580.7163    144.9663     33092.55      43.5214  83.47     1.885     1.868      0.550   0.01778785  16.7507        122
 4.85   0.0000    571.3085   1447.7944     3983.979      43.5214  19.43     2.258     1.637      1.663    0.0177798  19.0492        123
 5.88   0.0000    565.0881    139.5546      1310.25      43.5214 -69.74     1.052     0.977      0.582    0.0177798  20.2566        124
 3.50   0.0000    582.1971    319.2584     32337.21      43.5214   7.31     1.887     1.830      0.622   0.01779993  16.7757        125
 4.29   0.0000    596.7602    782.6867     12614.81      43.5214 -62.08     3.302     3.182      2.437   0.01778584  17.7978        126
 5.97   0.0000    576.2225   1001.8235      1276.38      43.5214  40.80     1.216     1.076      0.782   0.01778986  20.2850        127
 4.64   0.0000    584.5398     76.0209     1823.396      43.5214  -0.84     1.205     1.138      0.545   0.01779389  19.8978        128
 4.19   0.0000   1001.5298   1555.4829     3743.655      43.5214  54.97     1.346     1.330      0.696   0.01777376  19.1168        129
 4.71   0.0000   1597.6036    654.7847     1096.262      43.5214   1.75     1.659     1.434      2.966   0.01529453  20.4502        130
 5.16   0.0000   1594.7568    374.1190      1441.01      43.5214  42.74     1.307     1.027      0.911   0.01718595  20.1533        131
 4.05   0.0000   1584.9181   1108.9316     6126.923      43.5214 -15.59     1.433     1.357      0.396   0.01777779  18.5819        132
 6.78   0.0000   1585.9497   1069.5099     1634.242      43.5214 -88.96     0.783     0.500      0.558    0.0177798  20.0167        133
 3.60   0.0000   1541.8564    135.1745     12748.93      43.5214  54.68     1.663     1.623      0.445   0.01779188  17.7863        134
 8.74   0.0000   1519.3268     85.3294     1356.657      43.5214 -44.88     0.573     0.336      0.839   0.01777175  20.2188        135
 4.79   0.0000   1514.6519    483.6263     2703.595      43.5214 -43.74     1.049     0.951      0.634   0.01779389  19.4701        136
 4.90   0.0000    912.4185   1001.2366     1770.691      43.5214  73.44     0.989     0.957      0.610   0.01779188  19.9296        137
 3.50   0.0000    900.4997    302.8331     20969.71      43.5214 -64.19     1.794     1.787      0.641   0.01776973  17.2460        138
 4.92   0.0000    896.1861    538.5018      4080.39      43.5214   6.05     1.942     1.608      1.035   0.01778181  19.0232        139
 5.31   0.0000    893.7880   1426.2821     1246.075      43.5214 -16.60     0.974     0.854      0.492   0.01779188  20.3111        140
 3.50   0.0000    880.2065   1592.6320     173150.5      43.5214 -83.52     2.300     2.188      0.881   0.01779389  14.9539        141
 6.04   0.0000    888.8303    325.8213     2407.476      43.5214  17.19     1.767     1.100      1.444   0.01778785  19.5961        142
 8.02   0.0000    888.6788    681.3232      687.609      43.5214  44.90     0.568     0.338      0.694   0.01778181  20.9566        143
 4.51   0.0000    885.7850   1500.2664      2699.71      43.5214  10.00     1.303     1.227      0.521    0.0177959  19.4717        144
 7.04   0.0000    885.0953    339.2578     1394.321      43.5214  -2.69     1.149     0.882      0.864   0.01777376  20.1891        145
 4.70   0.0000    877.6797    961.0908     1769.323      43.5214  27.86     1.126     1.034      0.504   0.01777779  19.9305        146
 6.46   0.0000    876.3213    541.9203     717.4573      43.5214  -7.28     0.737     0.667      0.663   0.01777779  20.9105        147
 4.13   0.0000    869.4717   1103.7170     7090.178      43.5214 -55.22     1.983     1.793      0.753   0.01777376  18.4234        148
 4.96   0.0000    867.9886    939.9118     2935.752      43.5214  41.19     1.806     1.355      1.348   0.01778785  19.3807        149
 6.15   0.0000    869.3575    643.8528     971.5266      43.5214  68.50     0.904     0.687      0.572   0.01778986  20.5814        150
 8.15   0.0000    860.4996   1554.4683     553.1986      43.5214  48.21     0.504     0.495      0.714    0.0177798  21.1928        151
 4.53   0.0000    858.5098   1339.6924     2096.118      43.5214 -89.55     1.308     1.113      0.708   0.01777175  19.7465        152
 9.07   0.0000    855.5103    545.4817     892.4917      43.5214 -46.32     0.502     0.497      0.838   0.01777577  20.6735        153
 4.16   0.0000    844.9837   1063.9657      1679.34      43.5214   1.03     1.169     1.133      0.370   0.01778986  19.9872        154
 4.40   0.0000    843.3248   1106.2646      3173.91      43.5214  40.34     1.667     1.341      0.709   0.01777376  19.2960        155
 4.56   0.0000    836.6466    298.8450     4603.168      43.5214  11.92     1.467     1.396      0.569   0.01779389  18.8924        156
 6.83   0.0000    836.6003   1520.7371     709.2193      43.5214  18.11     0.733     0.456      0.652   0.01779993  20.9230        157
 5.73   0.0000    835.6805    819.1954     1146.149      43.5214 -72.93     0.960     0.861      0.585   0.01778986  20.4019        158
 3.50   0.0000    822.9877    654.4249     20627.49      43.5214  74.96     1.838     1.773      0.573   0.01778584  17.2639        159
 7.91   0.0000    819.4906   1398.4888     565.4648      43.5214  46.70     0.500     0.500      0.727   0.01777175  21.1690        160
 3.50   0.0000    803.0379   1378.7590      19705.7      43.5214 -72.46     1.796     1.752      0.489   0.01779389  17.3135        161
 3.50   0.0000    798.4418    695.7374     53970.69      43.5214 -88.12     2.639     1.966      1.055   0.01778584  16.2196        162
 4.17   0.0000    800.7010     41.1932     9148.434      43.5214 -23.53     1.671     1.577      0.547   0.01778181  18.1466        163
 4.28   0.0000    774.2634   1427.3890     6343.456      43.5214  89.63     2.902     1.909      1.877   0.01779993  18.5442        164
 7.20   0.0000    768.0129    140.0102     1085.268      43.5214  44.98     0.806     0.795      0.706   0.01778181  20.4612        165
 4.24   0.0000    742.8162    556.3451     4785.565      43.5214 -57.68     1.449     1.420      0.569   0.01779389  18.8502        166
 4.32   0.0000    738.1102   1158.1116     1677.658      43.5214  47.36     1.221     1.121      0.435   0.01776973  19.9882        167
 5.08   0.0000    736.0913    649.8519     1857.773      43.5214 -38.54     1.206     1.123      0.456    0.0177798  19.8775        168
 3.50   0.0000    726.6004    848.5243     149780.6      43.5214 -72.04     2.212     2.178      0.830   0.01779188  15.1114        169
 3.87   0.0000    727.4650   1178.3309     3260.844      43.5214 -10.14     1.394     1.328      0.680   0.01777779  19.2667        170
 5.23   0.0000    721.4345   1395.1035     1306.323      43.5214  16.01     1.086     0.953      0.657   0.01777376  20.2599        171
 3.96   0.0000    715.8315    808.4100     4160.312      43.5214  51.69     1.425     1.393      0.563   0.01778986  19.0022        172
 3.99   0.0000    708.9626   1163.8940     4276.336      43.5214  20.90     1.464     1.393      0.395   0.01777376  18.9723        173
 4.42   0.0000    704.4229   1339.0634     4112.464      43.5214 -25.11     1.700     1.462      0.743   0.01779389  19.0147        174
 3.68   0.0000    702.8209    952.5522     7608.601      43.5214  -9.41     1.630     1.577      0.589   0.01779188  18.3467        175
 6.02   0.0000    699.1675    582.7174     1890.038      43.5214   5.06     1.844     0.873      1.450   0.01778584  19.8588        176
 5.87   0.0000    691.6353   1213.6743     1560.895      43.5214  87.83     1.432     1.241      0.691   0.01778383  20.0666        177
 6.00   0.0000    686.6937   1213.8435     1146.343      43.5214 -47.21     1.217     0.958      0.621   0.01777175  20.4017        178
 4.18   0.0000    685.6500    644.3535     6181.911      43.5214 -73.12     1.594     1.581      0.633   0.01779389  18.5722        179
 5.68   0.0000    687.6556    130.9231     964.8426      43.5214  76.35     0.983     0.752      0.528   0.01778181  20.5889        180
 7.44   0.0000    668.9944   1221.5293     790.8273      43.5214  -0.05     0.827     0.706      0.896   0.01779389  20.8048        181
 3.50   0.0000    648.2678   1464.4448       147198      43.5214 -76.52     2.214     2.143      0.837   0.01778383  15.1302        182
 5.07   0.0000    654.6734    870.9016     1889.301      43.5214  21.01     1.193     1.057      0.483   0.01777376  19.8592        183
 6.84   0.0000    645.7944    653.0030     1222.062      43.5214 -88.71     0.912     0.756      0.476   0.01778181  20.3323        184
 7.26   0.0000    641.1874    276.8223     658.6833      43.5214 -45.77     0.755     0.569      0.652   0.01778383  21.0033        185
 4.14   0.0000    630.8300    806.1274     2006.683      43.5214 -34.12     1.204     1.125      0.487   0.01778785  19.7938        186
 4.30   0.0000    623.4095   1581.5348     3391.086      43.5214  49.39     1.346     1.338      0.708   0.01779993  19.2242        187
 7.18   0.0000    618.1836   1151.1306     1433.427      43.5214 -37.45     0.897     0.874      0.727   0.01779791  20.1591        188
 8.09   0.0000    609.5256    945.4929      789.421      43.5214  42.34     0.503     0.496      0.714   0.01777779  20.8067        189
 3.50   0.0000   1563.6936    304.2686       139556      43.5214 -77.52     2.157     2.117      0.835   0.01777779  15.1881        190
 4.14   0.0000   1566.7208     22.0779     8006.977      43.5214  75.11     1.574     1.553      0.478    0.0177798  18.2913        191
 3.94   0.0000   1542.6152    654.7387     9229.842      43.5214  29.79     1.579     1.560      0.628   0.01778785  18.1370        192
 3.50   0.0000   1558.0082    487.7251     135483.6      43.5214 -78.65     2.166     2.125      0.841    0.0177959  15.2203        193
 4.16   0.0000   1570.5596     92.7663     6698.592      43.5214  -2.72     1.453     1.398      0.625    0.0177959  18.4850        194
 4.48   0.0000   1546.1006    863.5362      4025.95      43.5214  60.15     1.564     1.328      0.902    0.0177798  19.0378        195
 4.36   0.0000   1561.3612    861.4875     4832.429      43.5214  19.18     1.352     1.338      0.674   0.01778383  18.8396        196
 4.38   0.0000   1565.7378    784.6730     4948.712      43.5214 -79.11     1.769     1.443      0.822    0.0177798  18.8138        197
 5.18   0.0000   1550.8444   1221.8484     2365.502      43.5214  42.51     1.082     0.925      0.404   0.01779188  19.6152        198
 3.57   0.0000   1552.6281    682.2971     53421.41      43.5214 -26.44     4.582     3.959      2.231   0.01777577  16.2307        199
 7.80   0.0000   1535.9841   1428.9976     1911.566      43.5214 -45.55     0.927     0.527      1.591   0.01778383  19.8465        200
 7.00   0.0000   1532.4937    415.7445      2189.49      43.5214 -84.33     1.017     0.979      0.975   0.01777779  19.6991        201
 7.59   0.0000   1519.9943   1100.7047     1796.219      43.5214  89.07     0.749     0.679      1.069   0.01778383  19.9141        202
 4.09   0.0000    928.4031   1322.5200     3395.207      43.5214 -44.27     1.357     1.342      0.698   0.01779188  19.2228        203
 3.50   0.0000   1514.9222    392.7349     26470.97      43.5214  66.54     1.807     1.797      0.561   0.01777577  16.9931        204
 6.00   0.0000   1515.4878   1547.1486     2025.039      43.5214  74.03     1.048     0.871      0.758   0.01777779  19.7839        205
 3.50   0.0000   1507.1836    269.3994     88717.75      43.5214 -82.06     2.049     2.030      0.806   0.01778383  15.6800        206
 5.55   0.0000   1498.4597    844.2532     2010.583      43.5214 -25.00     0.883     0.757      0.690   0.01778181  19.7917        207
 4.56   0.0000   1504.1298    723.3583     3555.512      43.5214  14.84     1.297     1.162      0.581   0.01778785  19.1727        208
 3.97   0.0000    939.1798   1067.2053     6020.448      43.5214 -23.40     1.522     1.452      0.538   0.01778584  18.6009        209
 6.96   0.0000   1488.2819     78.0035      1950.24      43.5214  -1.74     0.735     0.681      0.558   0.01778785  19.8248        210
 3.92   0.0000    912.8765    838.6033     2840.142      43.5214  -0.15     1.305     1.218      0.534   0.01778986  19.4166        211
 5.67   0.0000    950.7991    654.3572     2667.315      43.5214  65.98     1.507     1.354      0.932    0.0177959  19.4848        212
 5.84   0.0000    947.8477    445.1833     1281.214      43.5214  47.70     0.889     0.856      0.454   0.01779188  20.2809        213
 5.26   0.0001   1065.7639   1597.2657     300.5996      43.5214 -14.20     0.952     0.861      2.393   0.01556829  21.8550        214
 7.26   0.0000    938.5413    516.3163     2098.687      43.5214  57.72     1.300     0.997      1.004   0.01777779  19.7451        215
 7.66   0.0000   1474.9158    998.3757     2886.189      43.5214 -14.25     1.054     0.754      1.642   0.01778785  19.3992        216
 6.42   0.0000   1482.4310    575.2145     2648.346      43.5214 -30.81     1.204     0.969      1.517   0.01779389  19.4926        217
 5.80   0.0000   1438.6464   1271.3108     2424.207      43.5214 -45.87     0.991     0.878      0.598   0.01777779  19.5886        218
 5.08   0.0000   1072.1349   1219.1719     5513.843      43.5214 -73.97     2.049     1.696      0.995   0.01778785  18.6964        219
 4.97   0.0000   1079.4351    330.1989     1881.825      43.5214   1.47     1.167     0.990      0.587   0.01778383  19.8636        220
 3.95   0.0000   1415.4110   1386.6447     6550.898      43.5214  75.55     1.498     1.406      0.681   0.01778986  18.5092        221
 3.55   0.0000   1107.4796    428.0644     23114.99      43.5214  29.41     1.816     1.783      0.629   0.01777376  17.1403        222
 3.50   0.0000   1081.7991   1148.2404     32165.29      43.5214  77.56     1.859     1.838      0.587   0.01779188  16.7815        223
 5.70   0.0000   1066.6768    569.0727     998.9958      43.5214 -72.74     1.032     0.751      0.526   0.01777779  20.5511        224
 6.53   0.0000   1110.7510    479.0507     5183.763      43.5214  19.20     1.749     1.562      1.660    0.0177959  18.7634        225
 3.54   0.0000   1435.3314    224.8159      12793.9      43.5214  21.04     1.687     1.611      0.597    0.0177959  17.7825        226
 6.26   0.0000   1090.9882    468.1736     2527.246      43.5214 -62.75     1.759     1.048      1.420   0.01778785  19.5434        227
 7.39   0.0000   1441.0785   1082.6284     399.7992      43.5214  43.16     2.974     0.680      6.601   0.01778383  21.5454        228
 4.76   0.0000   1411.0619    350.0085     3185.988      43.5214  44.81     1.366     1.125      0.828   0.01779993  19.2919        229
 8.08   0.0000   1453.3318    391.6697      1104.59      43.5214  45.06     0.575     0.334      0.722   0.01777376  20.4420        230
 3.54   0.0000   1439.7888    619.2131      9806.61      43.5214 -62.85     1.575     1.554      0.494   0.01778383  18.0712        231
 3.50   0.0000   1393.4050    114.5455     179977.7      43.5214 -80.89     2.215     2.169      0.877   0.01780194  14.9120        232
 6.42   0.0000   1436.1945   1347.1851     1547.629      43.5214  46.04     0.748     0.567      0.618   0.01778181  20.0758        233
 4.63   0.0000   1120.3417    329.8551     6984.315      43.5214  55.81     2.503     1.644      1.254    0.0177798  18.4397        234
 6.70   0.0000   1431.9259    340.6477     2150.088      43.5214  15.34     1.044     0.753      1.100    0.0177798  19.7189        235
 4.82   0.0000   1129.1801    547.4301     2138.145      43.5214  54.92     1.192     1.121      0.609   0.01778986  19.7249        236
 3.50   0.0000   1408.2377    308.3844     9394.056      43.5214  -7.03     1.547     1.510      0.649   0.01779389  18.1179        237
 5.35   0.0000   1400.5464   1031.5027     3869.007      43.5214  31.11     1.429     1.368      0.749   0.01777175  19.0810        238
 3.50   0.0000   1388.6937   1428.5571     26331.24      43.5214  55.76     1.789     1.763      0.680   0.01777175  16.9988        239
 6.79   0.0002   1412.1804      1.3059     65.37328      43.5214 -77.74     1.083     0.409      2.658   0.01341131  23.5115        240
 4.72   0.0000   1406.3345    329.8578      2898.94      43.5214  26.69     1.130     1.025      0.551    0.0177798  19.3944        241
 4.65   0.0000   1330.5002    386.9715     2284.065      43.5214   3.29     1.098     0.952      0.564   0.01777577  19.6532        242
 4.79   0.0000   1259.4657    432.5281     5457.015      43.5214  25.38     1.823     1.760      1.616   0.01777577  18.7076        243
 3.68   0.0000   1278.0730   1331.4478     14309.51      43.5214  82.55     1.714     1.699      0.567    0.0177798  17.6609        244
 3.79   0.0000   1390.4578    713.3802      9691.42      43.5214  43.10     1.588     1.550      0.692   0.01779389  18.0840        245
 5.96   0.0000   1388.9021    806.6555     2347.934      43.5214  13.85     0.984     0.753      0.498   0.01777175  19.6233        246
 4.34   0.0000   1392.2596   1038.8943     7247.031      43.5214   8.71     1.474     1.451      0.483    0.0177798  18.3996        247
 3.53   0.0000   1218.8743   1195.0033     32724.46      43.5214  54.82     1.997     1.952      0.513   0.01779791  16.7628        248
 6.99   0.0000   1291.8092    546.1708     1182.088      43.5214 -44.88     0.757     0.568      0.471   0.01778986  20.3684        249
 3.56   0.0000   1210.6931   1279.0286     28976.17      43.5214  82.87     5.696     3.445      4.267   0.01778181  16.8949        250
 3.82   0.0000   1292.8365    412.6910     4135.236      43.5214 -22.03     1.326     1.267      0.499    0.0177798  19.0087        251
 8.47   0.0000   1262.3208    216.3072     1290.193      43.5214 -45.74     0.560     0.342      0.701   0.01777779  20.2734        252
 8.25   0.0000   1379.3267    319.3086     1642.527      43.5214 -45.93     0.563     0.340      0.659   0.01777779  20.0112        253
 8.27   0.0000   1352.4868    152.2023     2134.025      43.5214 -89.11     1.011     0.738      1.597   0.01778383  19.7270        254
 3.50   0.0000   1372.5312   1019.0457     28842.94      43.5214 -41.64     1.951     1.869      0.628   0.01778584  16.8999        255
 3.50   0.0000   1320.0488    660.0613      80099.1      43.5214  75.91     2.093     2.039      0.727   0.01778181  15.7909        256
 5.87   0.0000   1293.5828    742.1906     4372.522      43.5214 -15.99     1.535     1.440      0.663   0.01778181  18.9482        257
 7.00   0.0000   1346.3284    605.1111     1779.953      43.5214 -68.97     0.936     0.689      0.692   0.01777779  19.9240        258
 3.97   0.0000   1329.8187    655.9049     10314.55      43.5214  67.51     1.921     1.813      0.454   0.01778383  18.0164        259
 4.12   0.0000   1332.9294    107.4837     3703.804      43.5214  -2.81     1.329     1.158      0.549   0.01777376  19.1284        260
 3.50   0.0000   1298.3828    724.9477     358198.9      43.5214 -51.40     2.371     2.297      0.923   0.01779389  14.1647        261
 4.19   0.0000   1304.7047    892.9962     2980.005      43.5214 -75.91     1.297     1.172      0.459   0.01778181  19.3645        262
 4.08   0.0000   1319.2585    264.1429       3264.7      43.5214   6.39     1.181     1.123      0.520    0.0177798  19.2654        263
 4.31   0.0000   1307.5262    669.7034     9255.082      43.5214 -32.49     1.629     1.592      0.642   0.01777577  18.1340        264
 3.65   0.0000   1272.7618    610.0184     32351.59      43.5214 -58.16     4.190     2.580      1.567   0.01779389  16.7753        265
 5.69   0.0000   1299.3568     54.0625     1798.872      43.5214 -68.39     0.901     0.697      0.502   0.01778584  19.9125        266
 3.52   0.0000   1291.4148    762.2641     22070.14      43.5214 -23.95     2.297     1.839      0.693   0.01778785  17.1905        267
 3.56   0.0000   1265.4564    807.9594     11121.26      43.5214  -7.96     1.661     1.612      0.569   0.01778383  17.9346        268
 6.36   0.0000   1273.6595    698.0986     1359.419      43.5214  68.67     0.919     0.693      0.629   0.01777376  20.2166        269
 4.97   0.0000   1228.6499   1153.6350     1654.299      43.5214  43.00     0.997     0.872      0.642   0.01779188  20.0035        270
 5.85   0.0000   1262.1962    855.0399      2089.98      43.5214 -88.04     0.907     0.755      0.484   0.01778785  19.7496        271
 5.76   0.0000   1212.7454   1429.5703     5202.996      43.5214  66.31     2.076     1.803      2.303   0.01779389  18.7594        272
 4.06   0.0000   1237.0374   1553.6448     5939.269      43.5214 -72.17     1.471     1.442      0.555   0.01779389  18.6157        273
 6.33   0.0000   1229.7732    599.1249     2591.273      43.5214 -25.96     1.422     1.267      0.786   0.01778584  19.5162        274
 3.50   0.0000   1234.4055    304.8864     9366.285      43.5214   0.76     1.619     1.566      0.586   0.01778584  18.1211        275
 5.14   0.0000   1237.6368     48.3455     1835.539      43.5214  42.97     1.043     0.951      0.633   0.01778986  19.8906        276
 4.28   0.0000   1207.6377    838.9413     6163.763      43.5214  35.87     1.470     1.451      0.525   0.01778986  18.5754        277
 3.50   0.0000   1214.6141    513.0945     49726.81      43.5214  -0.90     1.943     1.918      0.674   0.01778383  16.3085        278
 4.24   0.0000   1200.8662   1442.2368     3970.973      43.5214 -76.41     1.564     1.485      0.868   0.01778785  19.0528        279
 7.93   0.0000   1204.4742   1217.4802     841.5836      43.5214  43.31     0.502     0.497      0.705   0.01777779  20.7373        280
 5.08   0.0000   1194.9722    124.1294       5329.5      43.5214 -83.39     1.957     1.669      1.070   0.01778986  18.7333        281
 3.91   0.0000   1201.8915    339.0921     5981.687      43.5214  41.67     1.528     1.455      0.402   0.01776973  18.6079        282
 5.34   0.0000   1130.2582    219.7123      2185.21      43.5214  22.28     1.184     1.117      0.671    0.0177798  19.7013        283
 3.50   0.0000   1138.5420    148.1507     85058.59      43.5214  77.75     2.097     2.062      0.784   0.01778584  15.7257        284
 5.95   0.0000   1181.9745    176.1647     1953.045      43.5214   3.89     0.910     0.759      0.470   0.01779188  19.8232        285
 4.90   0.0000   1180.9506    549.4130     2402.524      43.5214  37.05     1.159     1.067      0.523    0.0177959  19.5983        286
 4.68   0.0000   1153.5942   1353.1537     3207.767      43.5214  23.71     1.498     1.327      0.704    0.0177959  19.2845        287
 3.50   0.0000   1165.1395   1299.8351     123085.5      43.5214 -78.19     2.141     2.108      0.803   0.01778986  15.3245        288
 3.50   0.0000   1129.9851    183.6115     52008.59      43.5214  -6.31     1.968     1.954      0.705   0.01778584  16.2598        289
 3.53   0.0000   1157.8691    236.5205     18839.18      43.5214 -59.07     1.775     1.768      0.606   0.01777577  17.3623        290
 5.31   0.0000   1161.7438    887.7606     2118.795      43.5214 -40.77     1.157     1.096      0.552   0.01778986  19.7348        291
 4.11   0.0000   1151.2296     99.5155     4699.984      43.5214   1.70     1.475     1.409      0.637   0.01778785  18.8698        292
 6.72   0.0000   1131.0312    359.2770     1478.988      43.5214  79.06     0.733     0.682      0.492   0.01778584  20.1251        293
 3.50   0.0000   1079.9672    512.2063     87815.47      43.5214  74.02     2.099     2.081      0.784   0.01778986  15.6911        294
 4.04   0.0000   1095.4258   1526.6967     3155.257      43.5214  64.24     1.332     1.261      0.680   0.01778181  19.3024        295
 7.24   0.0000   1086.1484   1452.8627     1149.474      43.5214  46.36     0.838     0.678      0.864   0.01778181  20.3988        296
 7.41   0.0000   1090.0991    782.8873     64345.76      43.5214  45.01     1.234     0.538      3.412   0.01776973  16.0287        297
 5.92   0.0000   1094.6758   1136.2837     1061.795      43.5214  42.84     0.939     0.754      0.586   0.01777577  20.4849        298
 7.13   0.0000    978.4573    452.7135     1579.205      43.5214 -88.97     0.999     0.961      0.684    0.0177798  20.0539        299
 7.77   0.0000   1088.0132    397.0000     973.4683      43.5214  90.00     0.850     0.289      0.850   0.01778785  20.5792        300
 5.99   0.0000   1065.1993   1563.2179       3296.6      43.5214 -50.91     1.822     1.345      1.668   0.01778584  19.2548        301
 3.50   0.0000    984.8825    558.5286     78334.86      43.5214  86.99     2.062     2.035      0.754   0.01777376  15.8151        302
 3.50   0.0000   1009.8115    813.7941     53320.57      43.5214 -23.06     1.976     1.963      0.669   0.01777577  16.2328        303
 5.37   0.0000    965.2351    416.4796     1398.187      43.5214   9.67     0.991     0.951      0.588   0.01778383  20.1861        304
 5.22   0.0000    980.8171    797.9382     2899.525      43.5214 -22.95     1.473     1.417      0.729   0.01778584  19.3942        305
 3.50   0.0000   1040.2435    633.1321     103759.6      43.5214 -86.88     2.148     2.116      0.784   0.01778584  15.5099        306
 3.50   0.0000   1038.7074    525.4634      27309.7      43.5214 -89.92     1.895     1.851      0.678    0.0177798  16.9592        307
 4.72   0.0000   1030.4277    302.7162     5310.629      43.5214  61.98     2.411     1.679      1.772   0.01778584  18.7371        308
 5.83   0.0000    986.6929    454.0457     3477.485      43.5214  71.21     1.721     1.537      0.830   0.01777175  19.1968        309
 8.75   0.0000   1014.5078    453.4610     1161.388      43.5214 -62.89     0.500     0.498      0.723    0.0177798  20.3876        310
 6.43   0.0000    998.0614    233.3179     1763.842      43.5214  83.83     0.736     0.671      0.617   0.01777577  19.9339        311
 3.50   0.0000   1025.7098   1380.0499     58114.37      43.5214  87.42     2.054     1.952      0.668    0.0177798  16.1393        312
 3.80   0.0000   1011.3396    344.7471     8050.024      43.5214 -55.24     1.591     1.561      0.601   0.01778181  18.2855        313
 8.38   0.0000   1011.2415    267.9928     1292.597      43.5214   0.33     0.699     0.428      0.694   0.01779188  20.2713        314
 4.30   0.0000    999.9335   1273.7820     2886.817      43.5214 -27.04     1.275     1.172      0.453   0.01778986  19.3990        315
 4.10   0.0000   1001.6805    542.7173     8532.564      43.5214  12.75     1.658     1.575      0.603   0.01777577  18.2223        316
