#   1 KRON_RADIUS            Kron apertures in units of A or B                         
#   2 MAGERR_APER            RMS error vector for fixed aperture mag.                   [mag]
#   3 Y_IMAGE                Object position along y                                    [pixel]
#   4 X_IMAGE                Object position along x                                    [pixel]
#   5 THETA_IMAGE            Position angle (CCW/x)                                     [deg]
#   6 FLUX_APER              Flux vector within fixed circular aperture(s)              [count]
#   7 A_IMAGE                Profile RMS along major axis                               [pixel]
#   8 THRESHOLD              Detection threshold above background                       [count]
#   9 B_IMAGE                Profile RMS along minor axis                               [pixel]
#  10 FLUX_RADIUS            Fraction-of-light radii                                    [pixel]
#  11 FLUXERR_APER           RMS error vector for aperture flux(es)                     [count]
#  12 MAG_APER               Fixed aperture magnitude vector                            [mag]
#  13 NUMBER                 Running object number                                     
 3.50   0.0000    181.0213   1105.8226 -42.38     620290.4     6.679           15     6.089      6.836  0.003977269  13.5685          1
 3.50   0.0000     52.4330     61.7851  -1.53     26120.51     6.647           15     6.022      9.498  0.003977269  17.0075          2
 3.50   0.0000     15.7535    983.4631 -88.04     4248.485     4.568           15     2.012      5.935  0.003975469  18.9794          3
 3.50   0.0000     58.9526   1076.9381  82.68     40035.16     2.124           15     1.994      4.099  0.003975919  16.5439          4
 3.50   0.0000     16.2663    382.9737 -60.13     359.9702     1.470           15     1.238      3.809  0.003977269  21.6593          5
 3.50   0.0000     17.0164     89.4733 -38.81      4216.13     1.668           15     1.628      4.122  0.003979518  18.9877          6
 3.50   0.0000     13.8116   1444.2358 -43.73     11056.44     1.732           15     1.705      3.742  0.003977719  17.9410          7
 4.25   0.0000     13.2794    839.4593 -64.29     142.4301     1.755           15     1.135      4.372  0.003975469  22.6660          8
 3.50   0.0000      9.1434   1182.2228 -58.17     164.5332     1.088           15     1.052      3.519  0.003978618  22.5094          9
 3.50   0.0001      5.7230   1467.8273  -3.91     63.66095     1.183           15     0.926      3.215  0.003782168  23.5403         10
 4.00   0.0000      3.6141    143.2476  67.80     137.8976     1.689           15     1.561      4.912  0.003458932  22.7011         11
 5.03   0.0001      3.6377    183.7684 -16.02        37.91     1.193           15     0.959      4.694  0.003463585  24.1031         12
 6.83   0.0002      2.4338    843.2668  19.71      18.0223     0.732           15     0.456      3.565  0.003236018  24.9105         13
 6.06   0.0003      1.8042    302.4686   3.74     10.79272     0.943           15     0.716      4.415  0.003106231  25.4672         14
 3.78   0.0000     23.8595    365.4591   4.31     803.2454     1.406           15     1.341      3.862  0.003975018  20.7879         15
 3.50   0.0000     23.0221    381.4540  24.11     552.9154     1.355           15     1.214      4.005  0.003978618  21.1934         16
 3.50   0.0001     17.3073   1213.4205  41.48     77.21664     0.956           15     0.859      3.341  0.003975919  23.3307         17
 3.50   0.0000     14.7703   1561.4890  -0.83     97.77748     0.945           15     0.720      2.977  0.003975469  23.0744         18
 5.13   0.0001     15.4900    192.9881  -3.42      62.4994     0.788           15     0.499      3.054  0.003976369  23.5603         19
 3.50   0.0000     33.1031   1108.5421  62.13      370.869     2.061           15     1.306      4.689  0.003973668  21.6269         20
 5.07   0.0001     22.8381    696.7360  14.91     79.95026     0.927           15     0.843      3.601  0.003976819  23.2929         21
 5.64   0.0001     20.9432    212.0454 -45.15     41.17612     0.892           15     0.530      3.234  0.003976369  24.0134         22
 4.02   0.0001     24.2986   1451.6597 -46.75     53.40349     1.018           15     0.855      3.158  0.003973668  23.7311         23
 4.67   0.0000     32.4480    325.0097 -26.15     237.4343     1.563           15     1.264      4.490  0.003978618  22.1111         24
 6.92   0.0001     24.8343    529.8266  45.19     50.65125     0.759           15     0.567      4.033  0.003977269  23.7885         25
 6.71   0.0000     25.9111    701.3083  17.52     175.0121     0.916           15     0.682      3.932  0.003973218  22.4423         26
 5.31   0.0000     33.6394     14.6521  53.71     101.2123     0.979           15     0.853      4.319  0.003977269  23.0369         27
 3.50   0.0000     37.0468   1519.9733 -74.83     226.6668     1.084           15     1.067      3.426  0.003978618  22.1615         28
 4.62   0.0000     43.2929    438.5793 -53.91     209.2427     1.729           15     1.304      4.771  0.003975919  22.2484         29
 3.50   0.0000     38.0196   1169.1295  12.61     197.8494     1.289           15     1.179      3.776  0.003979068  22.3092         30
 3.50   0.0000     79.0623    535.8591 -63.07     35687.48     1.999           15     1.965      4.457  0.003975018  16.6687         31
 3.80   0.0000     41.4935    913.7980 -64.45     236.3374     1.227           15     1.051      3.576  0.003975469  22.1162         32
 7.06   0.0001     33.9667   1066.4921  58.09     39.19388     0.803           15     0.311      2.943  0.003974569  24.0670         33
 3.50   0.0000     38.6000   1224.6489 -30.78     95.64964     1.228           15     0.776      2.915  0.003979518  23.0983         34
 3.98   0.0000     49.4767    263.4285 -82.12      151.119     1.552           15     1.130      4.049  0.003976369  22.6017         35
 4.64   0.0001     42.6057    226.7916  40.20     46.83906     1.079           15     0.654      4.063  0.003975919  23.8735         36
 6.74   0.0003     39.4747   1126.5171 -43.85     16.57567     0.504           15     0.495      3.023  0.003974118  25.0013         37
 3.79   0.0001     41.4937   1000.3300  -1.36     44.30566     1.054           15     0.499      2.524  0.003974569  23.9339         38
 3.50   0.0002     46.5432   1429.2083  87.55     19.63328     0.923           15     0.722      2.543  0.003979967  24.8175         39
 6.67   0.0001     45.7285    473.0389 -10.42     49.70917     0.733           15     0.681      3.984  0.003976819  23.8089         40
 3.50   0.0000     49.4534   1433.9270   9.10     280.3356     1.096           15     0.936      3.440  0.003975018  21.9308         41
 5.18   0.0000     46.8039    664.5821  -3.69     120.2277     0.953           15     0.724      3.995  0.003975469  22.8500         42
 6.15   0.0000     50.2181    119.8695  39.13     103.2085     0.807           15     0.669      4.227  0.003978618  23.0157         43
 8.27   0.0001     49.3352    879.6919  46.34     80.99802     0.567           15     0.339      3.402  0.003975919  23.2788         44
 3.50   0.0000     74.1091    126.4795 -33.04     1749.684     1.503           15     1.437      3.937  0.003974118  19.9426         45
 5.86   0.0001     58.9934    469.1689  53.55     48.58615     0.918           15     0.474      3.919  0.003977269  23.8337         46
 3.50   0.0000     65.0521   1146.3165  -0.29     126.3129     1.444           15     1.193      3.680  0.003974118  22.7964         47
 5.64   0.0001     57.5757   1240.1871 -21.10     29.02008     0.749           15     0.444      2.533  0.003976369  24.3933         48
 4.17   0.0001     65.6561   1514.5503 -81.65     35.55138     0.917           15     0.484      2.031  0.003976369  24.1729         49
 4.99   0.0001     66.6765   1414.3184 -42.10      35.4508     1.020           15     0.862      3.693  0.003975469  24.1759         50
 7.28   0.0000     68.4343     17.8153  78.11     87.65925     1.055           15     0.885      5.868  0.003977269  23.1930         51
 3.50   0.0001     70.9527   1320.7626 -65.92     71.19628     1.010           15     0.818      2.578  0.003977719  23.4189         52
 8.63   0.0000     75.6857     80.4453 -38.45     225.9118     1.551           15     0.939      9.305  0.003975919  22.1652         53
 3.50   0.0000    120.9301    787.4855 -53.39     53124.15     2.055           15     2.021      4.207  0.003973668  16.2368         54
 3.50   0.0000     81.3387    419.7172 -81.40     316.4415     1.587           15     1.314      4.254  0.003974569  21.7993         55
 3.57   0.0000     89.6813    375.3947 -15.16     646.2961     2.397           15     2.065      5.490  0.003977269  21.0239         56
 7.72   0.0001     73.9792    732.2733  88.65     66.83943     0.662           15     0.446      3.395  0.003979068  23.4874         57
 3.50   0.0000     95.5787     54.3880  31.88     2567.876     1.639           15     1.612      3.978  0.003976369  19.5261         58
 3.84   0.0000    234.1185    401.6320 -47.47     23862.49     9.253           15     7.769     13.309  0.003976369  17.1057         59
 3.50   0.0000    192.5920    316.2872 -63.32     181221.8     2.930           15     2.351      4.562  0.003976819  14.9045         60
 3.50   0.0001     78.5913   1031.9655  -4.49     56.10416     1.095           15     0.928      3.468  0.003977719  23.6775         61
 7.43   0.0001     73.6413   1255.6760 -46.35     47.11753     0.584           15     0.329      2.296  0.003975919  23.8670         62
 6.48   0.0000     82.9982    930.8804  35.38     154.5092     1.250           15     0.967      5.632  0.003977269  22.5776         63
 5.35   0.0000     87.5067    757.2294  64.46     199.5435     1.285           15     1.195      4.644  0.003975469  22.2999         64
 3.79   0.0000     86.9773   1358.2859 -79.17      89.7002     1.119           15     0.894      3.526  0.003976819  23.1680         65
 6.23   0.0000     86.7000    862.2626 -36.18     111.0925     1.407           15     0.998      4.865  0.003974569  22.9358         66
 5.33   0.0000    141.2934    884.3462  52.27     143.5089     2.182           15     1.014      5.371  0.003974569  22.6578         67
 5.31   0.0001     90.7042   1043.9059  53.72     61.29579     1.594           15     0.914      4.222  0.003972317  23.5814         68
 3.50   0.0000     90.6289    494.1025 -78.53     234.0137     1.205           15     1.125      3.855  0.003974118  22.1269         69
 6.27   0.0001     87.7103    810.8326 -66.09     46.62616     0.934           15     0.667      3.674  0.003975469  23.8784         70
 6.08   0.0001     85.0338   1559.0720  45.28     49.50565     0.911           15     0.525      4.854  0.003976819  23.8134         71
 6.91   0.0001     85.7778    923.1917 -46.11     66.20245     0.760           15     0.561      4.035  0.003976369  23.4978         72
 3.79   0.0000     97.1720    451.1183 -15.24     470.0324     2.158           15     1.288      4.560  0.003976819  21.3697         73
 4.47   0.0000     94.6154   1074.7805  33.19     103.4967     1.369           15     1.123      3.889  0.003976369  23.0127         74
 3.75   0.0000     94.2044    387.5457   0.79     204.5852     0.925           15     0.726      3.233  0.003979967  22.2728         75
 5.99   0.0001     95.9941    559.7446 -89.68     67.18766     0.676           15     0.436      3.205  0.003980417  23.4818         76
 7.61   0.0000     93.6627    870.6544 -44.67     108.8185     0.584           15     0.329      2.280  0.003975469  22.9582         77
 5.82   0.0000    101.7271    517.3472  34.32     90.06333     1.114           15     0.881      4.818  0.003975018  23.1636         78
 5.32   0.0000    112.7186    268.6587  56.26     146.3823     1.646           15     1.251      5.271  0.003975018  22.6363         79
 4.54   0.0001    107.3400    861.3597  41.72     83.44581     0.978           15     0.859      3.534  0.003977269  23.2465         80
 6.20   0.0004    106.0743   1098.2151  -0.83     10.93811     0.913           15     0.742      3.787  0.003979518  25.4526         81
 4.59   0.0000    114.3043    414.1663 -68.21     145.4033     1.226           15     1.013      4.280  0.003974118  22.6436         82
 5.58   0.0001    106.9801   1420.9814 -40.64     55.57425     0.798           15     0.763      3.639  0.003976819  23.6878         83
 6.57   0.0001    106.4793    180.0427  -2.31     65.58624     0.780           15     0.499      3.911  0.003975469  23.5080         84
 3.51   0.0001    109.9083   1513.3596  20.21      40.0077     0.884           15     0.681      2.911  0.003973668  24.0446         85
 3.50   0.0001    116.1240    989.4617 -58.20     80.42583     1.138           15     1.019      3.320  0.003974569  23.2865         86
 4.21   0.0000    116.2476     65.0520  14.02      178.955     1.548           15     1.061      4.471  0.003977719  22.4181         87
 3.50   0.0000    116.7219    152.4536 -86.25     135.2452     1.123           15     0.971      3.568  0.003974569  22.7222         88
 4.01   0.0001    117.6549    911.8856 -66.63     79.51769     0.935           15     0.682      2.701  0.003975018  23.2988         89
 3.64   0.0000    125.2984    492.6189  -0.32     141.9323     1.665           15     1.219      4.363  0.003975018  22.6698         90
 3.50   0.0000    161.4541   1466.8248 -58.74     32927.47     1.941           15     1.902      3.928  0.003979068  16.7561         91
 7.32   0.0002    118.4848   1400.5156 -45.05     24.65419     0.503           15     0.497      3.016  0.003972767  24.5703         92
 4.30   0.0000    130.2065    416.2744  57.73     148.3849     1.100           15     1.057      4.081  0.003979068  22.6215         93
 3.50   0.0001    127.2841   1476.9161  64.33     63.82938     0.882           15     0.673      2.943  0.003973668  23.5374         94
 3.66   0.0000    128.3044    884.3072  39.90     109.8974     0.974           15     0.855      3.352  0.003972767  22.9475         95
 8.22   0.0001    129.4937    461.4671  79.24     44.13167     0.500           15     0.499      3.000  0.003974569  23.9381         96
 7.97   0.0001    134.2148     97.6237 -71.27     42.15534     0.773           15     0.439      3.772  0.003975919  23.9879         97
 7.98   0.0008    135.8455   1130.6890 -23.15     5.252863     0.893           15     0.682      3.838  0.003974569  26.2490         98
 6.93   0.0002    134.2994   1274.6626  43.05     28.52819     0.564           15     0.340      3.383  0.003975018  24.4118         99
 4.85   0.0000    145.7873    352.3016 -52.51     230.6885     1.442           15     1.181      4.207  0.003974569  22.1424        100
 5.52 5052.9961    138.1961   1599.6533 -73.31  6.46718e-07     0.751           15     0.443      2.044  0.003009082  43.5232        101
 3.50   0.0000    169.2865    875.6407 -68.74     9927.315     1.816           15     1.770      4.062  0.003975919  18.0579        102
 3.50   0.0000    150.7619   1278.9016  88.63     198.0515     1.163           15     1.081      3.538  0.003972767  22.3081        103
 3.72   0.0000    164.2101   1444.3116  58.08     682.5005     1.478           15     1.334      3.513  0.003976819  20.9647        104
 3.50   0.0000    154.5426     80.6307 -48.09     139.5345     1.063           15     0.915      2.974  0.003978169  22.6883        105
 4.37   0.0001    155.2148   1578.5200  33.04     73.11519     0.963           15     0.777      3.707  0.003978169  23.3900        106
 4.42   0.0000    164.9884    574.8645  77.32      121.802     1.398           15     1.054      4.006  0.003979068  22.8359        107
 5.40   0.0001    154.6382    822.7685 -65.92     35.51564     0.715           15     0.649      3.510  0.003977719  24.1740        108
 6.33   0.0001    155.8310   1007.3853 -70.63     33.78088     0.757           15     0.442      2.860  0.003978169  24.2283        109
 3.50   0.0000    165.7110    102.5932 -26.53       586.66     1.316           15     1.213      4.062  0.003975469  21.1290        110
 6.06   0.0001    159.1147    491.3987   9.60     71.09337     1.137           15     0.669      4.589  0.003976369  23.4204        111
 3.98   0.0000    168.5005   1367.4280  -3.63     173.6341     1.273           15     1.097      3.684  0.003974118  22.4509        112
 7.54   0.0000    165.9088   1054.5520 -36.52     89.85935     1.316           15     1.173      3.686  0.003974118  23.1661        113
 3.50   0.0001    164.4528   1196.4745  22.06     36.66644     0.914           15     0.886      3.144  0.003974569  24.1393        114
 4.33   0.0000    167.9214    649.5801  10.30     125.2557     1.346           15     1.111      4.149  0.003977269  22.8055        115
 3.88   0.0000    179.2475    573.4441  24.34     361.1427     1.806           15     1.458      4.930  0.003977719  21.6558        116
 4.91   0.0001    174.9355   1199.0177 -65.94     57.02429     1.231           15     1.040      4.424  0.003977719  23.6598        117
 7.05   0.0001    168.5139    168.5129  44.91     52.98375     0.504           15     0.496      3.022  0.003973668  23.7396        118
 7.80   0.0001    172.5058     30.4449  54.32     43.56706     0.503           15     0.494      3.019  0.003973668  23.9521        119
 3.50   0.0000    258.9322    995.8043 -40.78     86268.07     2.197           15     2.091      4.184  0.003979068  15.7104        120
 3.68   0.0000    191.7790   1349.0507 -29.04     920.3113     1.434           15     1.382      3.724  0.003977719  20.6402        121
 4.98   0.0000    185.8884   1353.4352 -60.76     288.4408     1.564           15     1.434      4.014  0.003975919  21.8999        122
 6.84   0.0000    182.3312     58.4811 -53.73     88.08255     0.998           15     0.697      4.105  0.003975018  23.1878        123
 6.87   0.0001    189.4915   1026.0365  72.61     42.92681     1.294           15     1.216      3.236  0.003974569  23.9682        124
 6.21   0.0001    186.4667    834.7823 -22.86     57.11631     1.172           15     0.796      4.378  0.003977719  23.6581        125
 3.50   0.0000    209.8897    826.0682  -8.26     2934.583     5.062           15     2.311      7.014  0.003974569  19.3811        126
 7.38   0.0001    183.4921    493.5126  45.65     46.89184     0.502           15     0.498      3.012  0.003973217  23.8723        127
 3.62   0.0000    229.0160    560.6641 -22.76     2437.212     4.037           15     3.709      8.814  0.003977269  19.5828        128
 5.16   0.0000    207.8212    348.2373  42.35     895.2056     2.328           15     1.613      4.609  0.003977719  20.6702        129
 3.50   0.0000    205.7506    547.4508  51.32     1810.052     1.491           15     1.485      3.743  0.003978618  19.9058        130
 5.43   0.0000    194.1587    266.3038  -3.04      208.841     1.868           15     1.194      4.729  0.003973218  22.2505        131
 3.50   0.0000    264.9563     65.7550 -47.06     65206.12     2.161           15     2.086      4.401  0.003978169  16.0143        132
 7.11   1.1579    193.7894   1158.3464 -18.24  0.003731868     0.969           15     0.853      4.295  0.003979068  34.1202        133
 5.54   0.0000    194.7835    447.7415 -54.85     123.8584     1.067           15     0.894      4.288  0.003977269  22.8177        134
 3.50   0.0000    211.4027   1304.6294 -28.12     1704.765     1.498           15     1.454      3.500  0.003975919  19.9708        135
 3.88   0.0000    209.9436    683.1042 -79.14     426.9415     1.698           15     1.384      4.109  0.003973668  21.4741        136
 4.21   0.0000    202.4782    249.1519 -60.10     235.9079     1.270           15     1.184      3.982  0.003975469  22.1181        137
 6.49   0.0000    204.5183    935.3228 -12.20     90.28236     1.134           15     0.832      3.717  0.003975469  23.1610        138
 3.66   0.0000    204.7073    182.1929 -25.95     89.50466     1.088           15     0.881      3.167  0.003975919  23.1704        139
 5.74   0.0000    221.6615    344.0259  25.52     532.5386     2.208           15     2.078      4.698  0.003977719  21.2341        140
 5.02   0.0000    205.1469    940.4786   2.45     196.4677     0.957           15     0.726      3.609  0.003974569  22.3168        141
 3.50   0.0000    311.2123    437.7686 -43.88     219389.7     2.580           15     2.399      4.640  0.003978169  14.6970        142
 3.50   0.0000    223.2622   1224.6063  67.34     2077.342     1.491           15     1.455      3.345  0.003979518  19.7562        143
 3.50   0.0000    208.2826   1224.1099  -9.72     134.2993     1.086           15     0.922      3.508  0.003974569  22.7298        144
 5.60   0.0000    216.7452    881.1793 -58.27     91.16952     1.992           15     0.918      4.621  0.003978169  23.1504        145
 4.87   0.0000    216.7865    739.7549 -45.18     185.6625     1.731           15     1.248      4.772  0.003977269  22.3782        146
 3.50   0.0000    227.7620    413.5855 -33.70     2849.927     1.726           15     1.661      4.136  0.003978169  19.4129        147
 6.22   0.0001    214.2040    791.6286 -30.93      74.0776     1.057           15     0.805      4.162  0.003976369  23.3758        148
 3.50   0.0000    221.6765    773.3259 -20.01     667.8487     1.345           15     1.265      3.737  0.003974569  20.9883        149
 7.57   0.0000    226.2783    323.4918 -81.97     148.1372     2.074           15     1.004      7.157  0.003974118  22.6233        150
 3.71   0.0000    243.0105    111.1027 -86.87      1102.45     2.419           15     1.752      4.736  0.003975018  20.4441        151
 6.46   0.0001    217.6989    491.0023  -4.09     54.22117     0.730           15     0.665      3.796  0.003975018  23.7146        152
 8.21   0.0002    219.4039    355.8098 -19.05      27.2121     0.757           15     0.448      3.699  0.003975469  24.4631        153
 3.83   0.0000    254.5513    611.2030 -40.46     2862.938     2.890           15     2.353      4.678  0.003979068  19.4080        154
 5.94   0.0000    229.3252    546.4078 -52.26      132.727     1.514           15     1.120      4.338  0.003978618  22.7426        155
 7.38   0.0001    220.5160   1401.4563  63.36     47.45871     0.500           15     0.498      3.002  0.003974569  23.8592        156
 3.50   0.0000    238.3811    837.2602  -1.16     361.1058     1.874           15     1.611      4.020  0.003977269  21.6559        157
 8.64   0.0009    234.6796   1125.3562  62.32     4.548252     1.116           15     0.927      4.493  0.003975018  26.4054        158
 3.50   0.0001    231.9676   1551.6797 -22.09     70.16104     0.883           15     0.678      2.504  0.003975919  23.4348        159
 3.88   0.0001    238.9686   1477.4473 -68.21     78.72356     1.283           15     0.919      3.407  0.003978618  23.3097        160
 4.67   0.0000    250.9243   1371.4806  89.91     387.8704     1.934           15     1.731      3.912  0.003975469  21.5783        161
 4.96   0.0000    249.4536    105.7775 -19.28     403.2155     1.432           15     1.278      4.932  0.003978618  21.5362        162
 4.78   0.0001    247.8289   1412.9543  45.09     86.15761     1.290           15     1.085      3.958  0.003978618  23.2118        163
 3.50   0.0000    252.5107   1351.3108  86.26     235.2258     1.141           15     1.056      3.753  0.003972317  22.1213        164
 4.45   0.0000    248.6849    149.8071 -32.28     89.35896     0.992           15     0.922      4.065  0.003976369  23.1722        165
 3.66   0.0000    250.4527   1549.4178  83.80     105.3317     1.043           15     1.025      3.426  0.003978169  22.9936        166
 3.89   0.0000    247.9675    561.0492 -36.33       149.24     0.788           15     0.758      2.887  0.003978169  22.6153        167
 3.50   0.0000    286.7185   1484.9955 -48.07     19669.17     1.888           15     1.854      3.813  0.003976819  17.3155        168
 5.26   0.0001    252.2202    693.4165  70.77     67.04755     0.739           15     0.454      2.330  0.003976819  23.4840        169
 6.42   0.0000    263.9649    723.0098 -83.33     116.6121     1.516           15     1.127      5.247  0.003977269  22.8831        170
 3.50   0.0000    350.4279    889.1496 -49.54     196501.9     2.430           15     2.253      4.358  0.003978169  14.8166        171
 3.50   0.0000    281.0552   1520.9050  81.15     4815.296     1.663           15     1.589      3.715  0.003974118  18.8434        172
 3.50   0.0000    350.4974   1344.3151 -36.77     187429.2     2.420           15     2.258      4.243  0.003972317  14.8679        173
 3.50   0.0000    317.8234    903.7739 -52.03     45803.44     2.176           15     2.014      4.238  0.003977719  16.3978        174
 3.90   0.0000    270.0481   1272.1323  15.76      331.998     1.537           15     1.399      3.662  0.003975919  21.7472        175
 5.39   0.0001    261.1553   1207.8533 -41.82     57.18008     0.752           15     0.567      3.169  0.003976819  23.6569        176
 7.42   0.0001    260.7121    480.9925  -4.41      39.5283     0.730           15     0.678      4.207  0.003976369  24.0577        177
 5.02   0.0000    264.4726    122.0912  11.32     168.7589     1.190           15     1.003      4.205  0.003974569  22.4818        178
 7.81   0.0001    267.9435    367.9843 -16.42     83.56908     1.167           15     1.081      7.001  0.003977719  23.2449        179
 5.59   0.0001    267.2399   1386.7109  50.43     47.27556     0.946           15     0.750      3.742  0.003975469  23.8634        180
 3.50   0.0000    302.1516    199.9386 -74.69     15669.93     1.842           15     1.825      4.230  0.003975469  17.5623        181
 3.50   0.0001    270.4892   1248.9794  87.18      39.9929     0.779           15     0.695      2.751  0.003975919  24.0450        182
 3.50   0.0000    296.6901   1411.9641 -42.08     685.1957     3.753           15     1.689      6.057  0.003975018  20.9605        183
 3.50   0.0000    288.8282    513.3585  51.49     1515.681     1.940           15     1.880      4.303  0.003978169  20.0985        184
 6.38   0.0001    268.2999   1308.6691  43.35      32.2757     0.561           15     0.341      3.128  0.003974569  24.2778        185
 7.67   0.0000    272.1040    724.8116 -49.42     157.4017     0.771           15     0.566      4.623  0.003975469  22.5575        186
 6.87   0.0000    275.7012   1376.1573  69.22     91.11019     0.931           15     0.684      4.542  0.003973218  23.1511        187
 6.48   0.0001    274.6638   1369.0334  -2.40     46.28572     0.737           15     0.652      3.601  0.003976819  23.8864        188
 5.41   0.0001    278.5140    555.5240  -1.69     74.38246     0.949           15     0.878      3.920  0.003973668  23.3713        189
 3.86   0.0000    292.5160   1474.2141 -33.68     646.6348     1.572           15     1.446      3.747  0.003977269  21.0234        190
 3.50   0.0000    293.0849   1326.0441 -28.41     2017.981     1.509           15     1.462      3.705  0.003975469  19.7877        191
 6.14   0.0001    285.0045    336.8025 -53.13     58.02966     1.028           15     0.822      4.283  0.003975919  23.6409        192
 3.85   0.0000    291.3944    246.6814 -43.05     150.7077     1.412           15     1.094      3.868  0.003977269  22.6047        193
 5.09   0.0001    287.1794   1349.6367 -73.96     47.09444     0.942           15     0.645      3.168  0.003978169  23.8676        194
 7.41   0.0000    287.1821    413.6571  -9.68     108.1336     1.190           15     0.914      4.750  0.003977269  22.9651        195
 7.03   0.0001    289.2919    887.3993 -82.67     71.55446     1.011           15     0.476      3.691  0.003975469  23.4134        196
 3.50   0.0000    301.2967    561.9062  72.44     844.8827     1.461           15     1.411      3.988  0.003973218  20.7330        197
 7.27   0.0001    286.6969   1409.6752 -43.82     43.06515     0.560           15     0.342      2.234  0.003974118  23.9647        198
 4.97   0.0000    307.7422     83.5914  75.44     274.4657     2.123           15     1.426      4.573  0.003979967  21.9538        199
 6.15   0.0003    290.1804      4.6054 -71.51      14.1162     0.728           15     0.454      2.389  0.003623168  25.1757        200
 3.50   0.0000    321.1690    695.6151 -34.71     11341.73     1.736           15     1.733      3.985  0.003978169  17.9133        201
 5.78   0.0000    294.5686    885.7791 -13.73      104.468     1.119           15     0.925      3.822  0.003976819  23.0025        202
 8.26   0.0001    291.4927    263.5036  44.78     55.16431     0.503           15     0.497      3.016  0.003972767  23.6959        203
 9.06   0.0000    291.5226    780.4788  44.85     100.7808     0.505           15     0.494      3.032  0.003975469  23.0416        204
 3.50   0.0000    320.7332    639.8378 -62.89     674.5043     2.540           15     1.728      5.094  0.003976819  20.9775        205
 3.50   0.0000    345.4520    865.4470  59.54     6940.811     2.632           15     2.159      3.815  0.003977719  18.4465        206
 3.85   0.0000    326.5693    593.7131   9.39     1478.462     2.153           15     2.097      4.170  0.003976819  20.1255        207
 7.03   0.0000    310.2846    315.7161  78.94     153.9811     1.460           15     0.974      5.537  0.003973218  22.5813        208
 3.50   0.0000    308.8889    983.5157 -77.35     89.19994     1.039           15     0.942      3.517  0.003974118  23.1741        209
 4.14   0.0000    315.9833    225.2863  -6.62     230.5603     1.330           15     0.991      4.035  0.003976819  22.1430        210
 3.50   0.0002    312.8518   1494.8325  39.69     24.64793     0.738           15     0.561      2.484  0.003978169  24.5705        211
 8.15   0.0001    313.3218    152.6642  44.36     39.66373     0.573           15     0.335      3.440  0.003974118  24.0540        212
 4.39   0.0000    323.7572    954.0402  29.50     176.0577     1.701           15     1.239      4.045  0.003978618  22.4359        213
 6.30   0.0003    315.3415     14.2786 -48.58      13.9998     0.556           15     0.342      2.300  0.003975469  25.1847        214
 3.63   0.0000    328.4418   1544.6156 -37.02     347.0374     1.211           15     1.128      3.574  0.003977719  21.6991        215
 5.62   0.0001    320.6384    574.5311   7.47     62.76101     0.998           15     0.630      3.864  0.003976819  23.5558        216
 4.61   0.0000    323.7986    340.4150  -2.32     143.7471     0.968           15     0.924      3.846  0.003975469  22.6560        217
 8.37   0.0001    333.5685    455.9782  66.92     78.98616     1.766           15     0.840      9.399  0.003976819  23.3061        218
 3.50   0.0000    331.3190     91.5485 -34.79     425.9006     1.266           15     1.220      3.834  0.003974569  21.4767        219
 3.50   0.0000    354.8625    430.0758  76.01      4986.43     2.096           15     1.933      4.028  0.003974569  18.8055        220
 3.76   0.0000    334.1712   1438.9642 -77.44     354.2315     1.179           15     1.134      3.672  0.003977269  21.6768        221
 5.74   0.0001    328.1288    242.2959 -59.72     81.64751     0.867           15     0.594      3.490  0.003974569  23.2701        222
 6.17   0.0001    335.5205    609.4713  -0.23     63.79335     0.942           15     0.881      4.836  0.003974569  23.5381        223
 3.51   0.0000    349.0352     52.9466 -66.01     961.0196     1.419           15     1.370      3.977  0.003976819  20.5932        224
 5.43   0.0000    336.1010    811.3521 -27.71      141.363     1.172           15     0.848      5.631  0.003971416  22.6742        225
 4.95   0.0001    335.0284    621.9882  75.78     65.03447     0.805           15     0.785      3.706  0.003977719  23.5171        226
 5.24   0.0000    338.5676    804.0825 -11.03     138.2097     2.391           15     0.881      9.748  0.003976369  22.6987        227
 3.50   0.0000    367.2340    759.5012   0.31     11394.62     1.802           15     1.753      3.905  0.003972317  17.9082        228
 3.50   0.0000    366.3976    441.0526  60.82     4100.726     1.777           15     1.651      4.049  0.003979518  19.0178        229
 4.43   0.0000    358.7328    531.6457 -23.75     295.5136     1.404           15     1.245      4.058  0.003976369  21.8736        230
 3.50   0.0001    340.1329   1502.1545 -46.17     55.14333     0.819           15     0.661      2.021  0.003976369  23.6963        231
 7.06   0.0000    349.2916    918.4362 -34.64     128.3147     1.491           15     1.294      5.145  0.003974569  22.7793        232
 4.73   0.0000    347.0912     40.8081 -59.41     137.3503     1.156           15     1.027      4.083  0.003975469  22.7054        233
 3.50   0.0000    394.2318    229.6257 -54.48     39785.41     2.050           15     1.972      4.361  0.003975919  16.5507        234
 3.50   0.0000    360.3794   1498.8564 -12.11     1923.318     1.714           15     1.460      3.762  0.003978169  19.8399        235
 5.06   0.0001    352.5029   1578.9875 -62.41     83.95309     1.057           15     0.655      3.044  0.003975018  23.2399        236
 3.95   0.0000    374.2936    752.1292  54.83     373.9667     2.513           15     1.486      5.343  0.003974569  21.6179        237
 6.44   0.0001    353.3129    350.3995  39.97     52.17435     1.312           15     0.504      5.952  0.003975919  23.7564        238
 3.99   0.0000    362.4939   1414.2428  79.12     132.7497     1.422           15     1.257      3.655  0.003973218  22.7424        239
 3.50   0.0000    359.6951   1032.4893 -13.02     455.3344     1.260           15     1.219      3.682  0.003972767  21.4042        240
 4.78   0.0001    355.1736   1396.9677  88.53     46.17362     0.868           15     0.748      3.622  0.003976819  23.8890        241
 5.62   0.0002    353.8496    825.8173  42.52     22.46825     0.757           15     0.571      3.395  0.003977719  24.6711        242
 5.54   0.0000    360.7242    368.4038 -72.06     102.5877     1.258           15     1.017      3.775  0.003978169  23.0223        243
 5.90   0.0001    358.6621   1046.3116 -45.38     60.65263     1.169           15     0.570      3.222  0.003974569  23.5929        244
 5.26   0.0000    368.4125    208.4630 -52.86     136.4273     1.392           15     1.114      4.253  0.003978169  22.7127        245
 3.50   0.0000    372.3954   1082.2760   7.02     345.8677     1.626           15     1.462      4.197  0.003978169  21.7027        246
 3.50   0.0000    371.9179    990.9640 -19.95     508.2318     1.290           15     1.283      3.792  0.003976369  21.2848        247
 3.71   0.0000    369.4850     69.7813 -43.69     223.8396     1.452           15     1.283      4.184  0.003977269  22.1752        248
 6.25   0.0001    361.8470     14.8623  45.73     52.51116     0.748           15     0.571      3.930  0.003975469  23.7494        249
 6.04   0.0002    365.1930    940.0161 -85.01      19.4265     0.901           15     0.751      4.076  0.003974569  24.8290        250
 3.50   0.0000    396.2017   1459.7356 -60.82     7937.318     1.710           15     1.679      3.691  0.003979518  18.3008        251
 7.95   0.0001    374.1133   1344.8329 -73.85     72.59828     1.140           15     0.971      4.234  0.003976819  23.3977        252
 3.50   0.0000    374.2860     85.5446 -72.70     206.7685     1.103           15     1.034      3.709  0.003975018  22.2613        253
 3.50   0.0000    397.1684    352.8747 -53.60     8992.457     1.767           15     1.699      4.029  0.003975919  18.1653        254
 3.50   0.0000    418.7027    431.5923 -54.08     37619.02     1.992           15     1.958      4.261  0.003975919  16.6115        255
 3.50   0.0000    390.9100     93.7870 -35.21     183.0772     1.205           15     1.022      3.419  0.003976369  22.3934        256
 4.46   0.0000    381.4601     65.5889  37.25     243.6901     1.439           15     1.201      4.189  0.003979068  22.0829        257
 6.90   0.0000    381.7107      9.4692  34.94     205.4686     1.385           15     1.308      5.398  0.003973668  22.2681        258
 3.50   0.0001    379.2044    510.4439 -58.24      85.0106     1.139           15     0.923      3.178  0.003978169  23.2263        259
 4.46   0.0000    379.1584    123.8874  45.20     314.4161     1.189           15     1.142      4.330  0.003975469  21.8062        260
 3.84   0.0000    395.5988    625.2861 -85.56     541.5292     2.336           15     1.898      5.720  0.003975919  21.2159        261
 3.50   0.0000    414.6534    835.7790 -86.44     20949.49     1.881           15     1.836      4.122  0.003977719  17.2471        262
 7.83   0.0000    377.1904    139.6098 -71.65     123.7554     0.745           15     0.451      3.451  0.003975018  22.8186        263
 3.50   0.0000    392.8825   1087.1373  27.17     1861.167     1.484           15     1.464      3.748  0.003974569  19.8755        264
 3.50   0.0000    388.0514   1193.9818 -63.50     181.9096     1.105           15     1.083      3.610  0.003977719  22.4004        265
 6.96   0.0001    382.6901    248.5648  29.99     68.77444     0.952           15     0.535      3.922  0.003975018  23.4564        266
 7.15   0.0002    381.4868   1483.5352 -46.53     20.58765     0.509           15     0.489      3.055  0.003974569  24.7660        267
 3.72   0.0000    388.7853    259.2869  82.09     149.2719     1.047           15     0.950      3.684  0.003976369  22.6151        268
 5.40   0.0000    402.7172    524.9601  63.32     250.2408     2.147           15     1.291      4.809  0.003976369  22.0541        269
 3.50   0.0000    395.5735    975.9698 -64.98     264.7967     1.296           15     1.184      3.851  0.003977269  21.9927        270
 3.50   0.0000    436.9847    250.2869  80.48     17247.89     1.880           15     1.858      4.221  0.003976369  17.4582        271
 3.50   3.3370    389.8449   1166.6427 -22.22  0.001294675     0.858           15     0.687      2.279  0.003978169  35.2696        272
 6.33   0.0000    411.2217      2.0090 -89.01     120.4797     2.935           15     0.925      6.530  0.003149709  22.8477        273
 7.44   0.0001    393.3539    144.1269 -69.60     63.39684     0.947           15     0.685      4.754  0.003975018  23.5448        274
 4.91   0.0000    391.8285    682.1618  45.39     93.78461     0.805           15     0.665      3.796  0.003977719  23.1197        275
 5.27   0.0001    390.4884   1063.9827  -1.27     33.36476     0.773           15     0.500      3.255  0.003975919  24.2418        276
 3.50   0.0000    460.3274    806.0079 -43.01     98701.58     2.213           15     2.103      4.082  0.003978169  15.5642        277
 4.69   0.0001    400.5124    811.0016  49.74     68.66233     1.030           15     0.912      3.730  0.003976369  23.4582        278
 3.50   0.0000    412.5606   1560.8337 -63.29     204.1731     1.820           15     0.996      3.593  0.003978169  22.2750        279
 5.67   0.0000    420.6196    132.7295 -31.62     377.8158     3.012           15     2.100      8.362  0.003979068  21.6068        280
 3.50   0.0000    406.1489    280.5368 -33.78      221.085     1.222           15     1.041      3.339  0.003975919  22.1886        281
 3.50   0.0000    423.2224    924.7928 -29.49     4166.725     1.615           15     1.602      3.920  0.003976369  19.0005        282
 3.58   0.0000    414.0773    557.5623  76.11     202.6042     1.733           15     1.474      4.591  0.003975919  22.2834        283
 4.17   0.0000    419.8095    157.4447  27.89     717.9274     2.027           15     1.739      4.869  0.003977719  20.9098        284
 3.50   0.0000    417.8195   1203.0179 -80.77     157.0241     1.233           15     1.166      3.736  0.003976819  22.5601        285
 3.50   0.0000    418.4508    772.9764 -80.68     147.8487     1.319           15     1.181      3.932  0.003978618  22.6255        286
 4.29   0.0001    416.1802    939.0889  44.43     74.06756     1.380           15     0.882      3.894  0.003976369  23.3759        287
 4.68   0.0000    429.8530    717.5466  54.55     309.2149     2.400           15     1.918      6.502  0.003976819  21.8243        288
 3.50   0.0000    425.7675   1177.7944  33.32     427.1876     1.916           15     1.539      4.576  0.003977269  21.4735        289
 4.62   0.0000    419.0101   1579.1522 -62.86     210.3568     1.102           15     1.024      3.565  0.003978618  22.2426        290
 7.81   0.0001    413.4175    178.7532 -18.59     71.73048     0.755           15     0.454      3.614  0.003977269  23.4107        291
 3.77   0.0000    466.8853    848.9951  22.58      3464.48     8.779           15     2.489     12.034  0.003976369  19.2009        292
 5.54   0.0001    417.3127   1295.0107  -1.09     45.03149     0.757           15     0.675      3.429  0.003976819  23.9162        293
 3.50   0.0000    432.1018   1420.5638 -17.93     1218.957     1.471           15     1.368      3.436  0.003972767  20.3350        294
 6.82   0.0000    421.8432    629.8857 -28.83     115.0535     1.314           15     0.776      5.032  0.003975919  22.8977        295
 3.67   0.0000    425.2735    298.3060  83.26     203.1155     1.071           15     1.002      3.445  0.003974118  22.2806        296
 3.50   0.0000    419.9527   1090.9771  44.56     105.1542     0.780           15     0.760      2.440  0.003977719  22.9954        297
 3.50   0.0000    449.3142     19.5246  76.83     5663.982     1.763           15     1.665      4.079  0.003973668  18.6672        298
 3.50   0.0000    423.4485   1062.2931  -2.88     170.5674     1.125           15     0.962      3.297  0.003973668  22.4703        299
 3.50   0.0000    433.0605    149.3733  16.36     571.3694     1.392           15     1.306      3.914  0.003977719  21.1577        300
 3.50   0.0000    425.7820   1007.1625 -62.72     104.4223     0.910           15     0.730      2.403  0.003977719  23.0030        301
 5.68   0.0000    434.7188    118.4007  -8.19     125.9353     1.583           15     1.476      4.731  0.003976819  22.7996        302
 3.79   0.0000    444.1181    120.4188 -29.29     723.9539     1.778           15     1.606      4.421  0.003977719  20.9007        303
 3.50   0.0000    439.0537    303.9864  66.69     614.4357     1.313           15     1.282      3.886  0.003978169  21.0788        304
 3.50   0.0001    429.2573   1307.4042  -4.08     48.00866     0.940           15     0.704      2.590  0.003979518  23.8467        305
 3.50   0.0000    456.8188     32.7342  71.02     6392.493     1.721           15     1.707      4.135  0.003977269  18.5358        306
 4.19   0.0000    432.5095    404.8405 -30.74     135.9487     1.005           15     0.924      3.586  0.003975018  22.7166        307
 4.34   0.0000    432.7837    351.6006  15.55      117.504     0.945           15     0.926      3.888  0.003975919  22.8749        308
 3.50   0.0000    446.5866    882.1780   5.35     656.7939     2.727           15     1.716      5.332  0.003976369  21.0064        309
 6.55   0.0001    437.0214   1380.9800 -37.79      31.6607     0.807           15     0.776      3.460  0.003977719  24.2987        310
 4.69   0.0000    442.8842    653.6063  40.25     181.7793     1.101           15     1.031      3.709  0.003976369  22.4011        311
 4.23   0.0000    442.8299    172.7107  88.58     280.1708     1.146           15     1.114      4.057  0.003975469  21.9314        312
 3.68   0.0000    532.1406    517.2032  31.57     12993.05     6.187           15     5.013      9.457  0.003979518  17.7657        313
 4.19   0.0000    441.2750    957.8518 -61.55     107.3946     0.952           15     0.841      3.375  0.003974118  22.9725        314
 5.91   0.0001    436.5045     52.4718 -49.06     50.37818     0.502           15     0.497      2.363  0.003974569  23.7944        315
 4.22   0.0001    444.6239   1503.9014 -14.24     71.33333     1.124           15     0.935      3.775  0.003974118  23.4168        316
 3.50   0.0000    462.7146    466.8772  49.50     1865.289     1.634           15     1.521      4.039  0.003973218  19.8731        317
 3.50   0.0000    453.5330   1222.8749 -56.47     145.0378     1.249           15     1.089      3.557  0.003973218  22.6463        318
 3.50   0.0000    452.0466   1531.8092 -15.24     320.5681     1.156           15     1.071      3.328  0.003978618  21.7852        319
 4.13   0.0001    450.6602   1129.9235  76.00     53.25661     1.003           15     0.756      3.383  0.003975018  23.7341        320
 3.50   0.0000    470.5872    252.7215  52.06     1600.431     1.923           15     1.490      3.731  0.003978618  20.0394        321
 3.50   0.0000    460.1024   1094.5745  39.48     569.8854     1.470           15     1.287      4.100  0.003975018  21.1605        322
 5.32   0.0001    449.6583   1353.0112   1.72     62.27734     0.734           15     0.645      3.345  0.003978618  23.5642        323
 4.07   0.0000    472.2964   1131.0360  86.33      158.173     2.431           15     0.883      4.696  0.003972767  22.5522        324
 3.59   0.0000    460.4799    723.4733 -13.17     323.8066     1.874           15     1.317      4.381  0.003974569  21.7743        325
 3.50   0.0000    471.0857    733.2172 -22.08     2360.875     1.545           15     1.502      3.837  0.003976819  19.6173        326
 6.99   0.0001    456.0136    483.0009  -0.12     35.39059     0.616           15     0.611      3.694  0.003976369  24.1778        327
 3.77   0.0000    495.2566     80.9949 -75.58     1626.329     3.127           15     2.714      6.949  0.003979967  20.0220        328
 3.50   0.0000    477.0055    921.4139 -40.47     3003.689     1.569           15     1.508      3.673  0.003974569  19.3559        329
 5.24   0.0000    464.4754    127.5465 -21.31     167.2315     1.660           15     1.062      6.032  0.003975018  22.4917        330
 6.91   0.0001    458.1750   1383.8326 -46.20     56.17117     0.751           15     0.567      3.551  0.003976819  23.6762        331
 8.68   0.0002    456.3340   1235.6608  44.78     26.74188     0.580           15     0.332      3.481  0.003975018  24.4820        332
 4.39   0.0000    466.0786   1196.8776  82.31     122.0489     1.291           15     1.182      3.668  0.003975469  22.8337        333
 4.34   0.0000    464.8790    559.8107  65.00     141.3513     1.109           15     1.024      4.050  0.003977719  22.6742        334
 3.71   0.0000    488.1693    838.0694 -89.64     424.8568     3.072           15     1.199      5.351  0.003976819  21.4794        335
 3.50   0.0000    477.1234   1275.4559  19.44     1035.233     1.454           15     1.393      3.590  0.003975469  20.5124        336
 3.50   0.0000    495.0998   1185.2753 -26.16      1582.61     3.613           15     2.536      6.519  0.003971866  20.0516        337
 3.50   0.0000    478.1635    680.9523 -65.20      249.628     1.563           15     1.056      3.715  0.003977719  22.0568        338
 5.31   0.0001    471.7993    780.1220  23.95      62.9189     1.139           15     1.007      3.983  0.003977719  23.5530        339
 5.67   0.0001    468.1573    662.1224 -41.34     71.08762     0.821           15     0.674      3.514  0.003975919  23.4205        340
 3.50   0.0000    475.0752   1166.8884   1.76     220.7526     1.107           15     1.092      3.680  0.003973218  22.1902        341
 5.40   0.0000    479.9283   1518.1958 -47.30     146.8192     1.487           15     1.118      4.318  0.003978169  22.6330        342
 5.42   0.0000    483.3886    427.0773  82.65     248.2366     1.651           15     1.021      6.480  0.003978618  22.0628        343
 3.50   0.0000    483.0341   1069.1205 -13.33     1346.478     1.409           15     1.340      3.762  0.003975919  20.2270        344
 6.92   0.0000    481.1826     77.1426  58.34     156.2485     1.810           15     0.985      6.634  0.003977269  22.5655        345
 5.86   0.0000    487.8893    422.9884 -45.81     249.9975     2.154           15     1.030      7.499  0.003976369  22.0552        346
 4.72   0.0000    480.2120   1308.2666  13.29     224.2173     1.253           15     1.081      3.530  0.003978618  22.1733        347
 3.50   0.0000    511.5095   1300.7714  68.23      13018.5     1.796           15     1.764      3.946  0.003975469  17.7636        348
 3.62   0.0000    503.2301    761.2233  -4.04     995.6027     2.381           15     2.117      4.759  0.003976369  20.5548        349
 5.61   0.0001    485.3775    827.2341  57.85      74.5257     1.007           15     0.787      3.684  0.003977269  23.3692        350
 7.37   0.0001    484.1759    253.5986 -69.90     48.17993     0.742           15     0.446      3.289  0.003976369  23.8428        351
 3.50   0.0000    514.5536   1459.5905  24.85     2202.631     4.878           15     1.874      7.006  0.003978618  19.6926        352
 7.85   0.0002    484.2979   1228.3258 -43.45     23.14051     0.558           15     0.342      2.679  0.003973668  24.6391        353
 4.56   0.0000    492.2623    572.9792 -16.88      169.286     1.049           15     0.996      3.797  0.003978169  22.4784        354
 5.82   0.0001    484.5482    941.4947  -5.07     54.82564     0.500           15     0.498      2.951  0.003974118  23.7025        355
 3.50   0.0000    586.8705   1314.5167 -35.46     196376.4     2.857           15     2.279      4.195  0.003973668  14.8173        356
 4.36   0.0000    500.9193   1308.7626 -66.01     278.3817     1.341           15     1.267      3.515  0.003975919  21.9384        357
 3.50   0.0000    501.1273    862.1901 -16.89     675.4323     1.334           15     1.327      3.686  0.003978618  20.9760        358
 3.50   0.0000    497.0681    364.6265  11.28     300.6401     1.268           15     1.120      3.936  0.003977269  21.8549        359
 3.50   0.0000    494.4064   1419.9204   1.58     99.87692     1.198           15     0.974      3.463  0.003976819  23.0513        360
 3.50   0.0000    512.4128   1308.8358  73.99     1279.337     1.587           15     1.417      3.913  0.003977719  20.2825        361
 3.50   0.0000    501.8904    441.4088 -66.56     93.81864     1.008           15     0.949      2.868  0.003975469  23.1193        362
 3.95   0.0000    509.0423    162.5956  -4.82     686.5129     2.507           15     1.321      5.096  0.003978169  20.9584        363
 3.50   0.0000    630.2510    481.5387 -32.10     317185.8     2.899           15     2.700      4.774  0.003975469  14.2967        364
 3.50   0.0000    504.1844   1567.6553 -16.97     127.3595     0.927           15     0.827      3.167  0.003978169  22.7874        365
 7.12   0.0000    504.4329    324.4170  47.55     116.1921     1.010           15     0.880      4.784  0.003977719  22.8871        366
 3.50   0.0000    512.9147   1177.8210 -35.72     754.1706     1.383           15     1.285      3.594  0.003977269  20.8563        367
 4.72   0.0000    509.1272    451.8443   5.49     142.2602     1.266           15     1.167      3.980  0.003975018  22.6673        368
 3.50   0.0000    518.2557    640.3034 -41.43     518.2108     1.607           15     1.444      4.033  0.003973668  21.2637        369
 6.05   0.0000    508.3752    306.8041 -19.91     109.5685     1.071           15     0.857      4.196  0.003976819  22.9508        370
 3.50   0.0000    517.3838   1517.8750  82.45     259.3484     1.163           15     1.121      3.509  0.003979068  22.0153        371
 7.42   0.0000    509.7285    323.9870   2.30     125.8464     0.727           15     0.687      4.362  0.003979518  22.8004        372
 4.16   0.0000    519.7965    852.2980 -59.33     162.3223     1.296           15     1.237      3.999  0.003975469  22.5241        373
 5.01   0.0004    510.5995    804.8359  19.75     11.36129     0.751           15     0.445      2.846  0.003975469  25.4114        374
 6.22   0.0000    516.0262    165.0444  45.65     462.5663     0.900           15     0.528      4.330  0.003979068  21.3871        375
 5.89   0.0001    519.4958    580.8436 -88.03     65.61065     0.948           15     0.742      3.853  0.003973668  23.5076        376
 7.28   0.0001    519.0308    828.0000  90.00      38.7354     0.843           15     0.289      2.399  0.003975919  24.0797        377
 6.24   0.0000    528.0430    163.3423  63.64     139.0903     1.365           15     0.878      4.912  0.003976369  22.6918        378
 3.50   0.0000    539.3129    998.3310 -70.29     1916.357     1.493           15     1.462      3.736  0.003973668  19.8438        379
 3.50   0.0000    535.0595    402.7670  29.08     317.2389     1.780           15     1.365      4.741  0.003977269  21.7965        380
 7.27   0.0003    523.4644   1056.4950  39.70     15.91126     0.503           15     0.496      3.016  0.003975469  25.0457        381
 7.90   0.0001    522.5049    307.4641 -47.03      29.1444     0.508           15     0.490      3.049  0.003975469  24.3886        382
 3.50   0.0001    530.8118   1565.2172  44.85     79.22717     0.940           15     0.889      2.992  0.003975919  23.3028        383
 3.50   0.0000    543.1094    932.6140 -66.88     214.8976     2.273           15     1.031      3.800  0.003976369  22.2194        384
 9.17   0.0001    535.5113    282.4944  43.82      69.7603     0.501           15     0.499      3.006  0.003973217  23.4410        385
 3.50   0.0000    571.8168   1241.2998 -77.01     7965.177     2.029           15     1.692      3.679  0.003975469  18.2970        386
 3.50   0.0000    558.0371   1040.2251  -9.90     2540.064     1.655           15     1.506      3.663  0.003977269  19.5379        387
 3.81   0.0001    545.2867    849.4888  -7.60     74.90029     0.977           15     0.940      3.246  0.003974118  23.3638        388
 3.51   0.0000    570.2460     44.0987  49.45     1513.998     2.443           15     1.669      4.836  0.003971416  20.0997        389
 3.50   0.0000    581.1934    317.4510  36.99     11008.67     1.838           15     1.778      4.108  0.003979518  17.9457        390
 3.50   0.0000    570.6835   1446.9796  20.63     1314.019     3.167           15     1.966      4.446  0.003977269  20.2535        391
 3.50   0.0000    554.9998    777.1388  23.87     217.3557     1.096           15     1.071      3.688  0.003979518  22.2071        392
 4.68   0.0001    552.7538    964.6172  15.60     56.59074     0.969           15     0.848      3.547  0.003977719  23.6681        393
 4.32   0.0000    558.3867   1067.7919  68.18       91.595     1.434           15     0.961      4.268  0.003974569  23.1453        394
 3.50   0.0000    579.6481    143.1503 -58.12     11265.81     1.752           15     1.731      4.143  0.003978618  17.9206        395
 3.50   0.0000    595.7391    781.1534 -55.17     4095.476     4.007           15     3.719      7.246  0.003976369  19.0192        396
 4.41   0.0000    563.8170    137.7230  87.64     446.1165     1.327           15     1.273      4.075  0.003978169  21.4264        397
 5.23   0.0000    558.8746   1404.3569  16.71     129.2848     2.381           15     1.005      4.937  0.003975469  22.7711        398
 4.84   0.0000    553.9764    804.0148 -87.45     94.74294     0.783           15     0.774      3.716  0.003976369  23.1086        399
 3.50   0.0000    562.0296    904.3709  80.46     139.7683     1.039           15     0.920      3.520  0.003976819  22.6865        400
 3.50   0.0000    561.8604    839.1833 -53.65     99.76183     1.293           15     0.878      3.018  0.003976819  23.0526        401
 4.34   0.0002    564.7954   1249.5878 -57.40     26.80804     1.168           15     0.941      4.117  0.003975018  24.4793        402
 3.50   0.0001    560.1372   1502.7888  48.52     45.05649     0.816           15     0.673      2.543  0.003979518  23.9156        403
 4.70   0.0000    565.9980    630.5018 -86.06     140.2485     1.039           15     0.935      4.020  0.003975018  22.6828        404
 4.83   0.0001    563.3328   1168.7266 -46.71     59.84426     1.008           15     0.854      3.674  0.003973668  23.6074        405
 3.50   0.0000    575.3124   1000.2608 -15.35     434.5463     1.717           15     1.618      3.941  0.003974569  21.4549        406
 7.76   0.0001    561.3551    592.7014  47.64     53.35562     0.571           15     0.336      3.424  0.003972767  23.7320        407
 5.63   0.0000    569.2311    112.3170 -74.42      93.6665     1.106           15     0.970      4.401  0.003976369  23.1210        408
 5.51   0.0000    566.4101   1114.6134  46.64     110.7869     1.049           15     0.942      3.928  0.003975469  22.9388        409
 4.73   0.0000    577.0698    737.9145  52.47     231.3189     1.553           15     1.316      4.917  0.003973668  22.1395        410
 8.39   0.0001    568.1765    708.6044 -71.44     46.18031     0.754           15     0.449      3.426  0.003976819  23.8889        411
 8.20   0.0001    569.7476   1108.5878  71.26      46.3578     0.743           15     0.455      3.613  0.003978618  23.8847        412
 3.50   0.0000    583.4811     74.1989   9.33     620.7451     1.345           15     1.330      4.052  0.003976819  21.0677        413
 4.82   0.0000    578.4114    677.8210  22.31     194.0034     1.400           15     1.333      4.025  0.003976369  22.3305        414
 6.43   0.0000    573.9907    547.9200   7.93     102.5275     1.134           15     0.852      3.869  0.003977269  23.0229        415
 7.81   0.0001    569.6770   1177.3269  44.81     71.89681     0.570           15     0.337      3.320  0.003974569  23.4082        416
 3.93   0.0000    577.7634    843.4693  24.52     212.7114     1.852           15     0.943      5.181  0.003977269  22.2305        417
 7.09   0.0001    574.2331   1211.0239  -1.06     40.73567     0.693           15     0.423      3.596  0.003976819  24.0251        418
 7.89   0.0001    577.0121    480.9940  -1.87     54.03339     1.078           15     0.735      3.857  0.003974118  23.7183        419
 4.85   0.0000    583.0475   1099.5220 -71.68     90.34825     1.075           15     0.944      3.891  0.003975469  23.1602        420
 6.25   0.0001    578.2902   1555.9836   1.85     46.33985     0.741           15     0.685      3.952  0.003977269  23.8851        421
 4.25   0.0001    577.9362    694.9722  48.91     58.55827     0.801           15     0.763      3.099  0.003977269  23.6310        422
 4.63   0.0000    584.4149   1171.3857  -1.89     265.4204     1.178           15     1.031      3.785  0.003976819  21.9902        423
 3.50   0.0001    581.6339   1485.3845  21.76     46.30298     0.911           15     0.783      3.171  0.003977269  23.8860        424
 5.91   0.0001    582.4998   1183.7992  89.48     72.23047     0.951           15     0.733      3.976  0.003975018  23.4032        425
 8.72   4.0022    577.5172   1351.5007 -44.09  0.001077882     0.504           15     0.495      3.027  0.003972317  35.4686        426
 4.35   0.0000    583.6613    209.6293  40.40     94.62362     0.985           15     0.860      4.058  0.003977269  23.1100        427
 4.22   0.0000    587.5735   1137.8687 -13.30     154.3666     1.082           15     0.926      3.805  0.003977269  22.5786        428
 3.50   0.0000    998.9175   1272.4537 -31.29     982.7692     1.426           15     1.279      3.520  0.003974118  20.5689        429
 3.84 118.8562   1598.6643    709.2864   9.91 2.938534e-05     1.296           15     0.906      2.787   0.00321605  39.3797        430
 3.77   0.0000   1596.5712    653.1467 -22.61      373.204     2.113           15     2.024      4.131  0.003595901  21.6201        431
 5.26   0.0344   1599.1162     17.0043   3.59    0.0986039     1.927           15     0.882      4.598  0.003122893  30.5653        432
 3.50   0.0000   1593.4677    372.3283  55.12     490.5679     1.714           15     1.434      3.820  0.003955614  21.3233        433
 8.48   0.1450   1593.4901    299.4872  45.17   0.02961676     0.505           15     0.494      3.032  0.003954709  31.8712        434
 4.81   0.0000   1590.3218    565.2696  12.19     281.6019     1.090           15     1.009      3.717  0.003973668  21.9259        435
 4.69   0.0000    924.1212    932.8450  44.49     148.7302     0.819           15     0.672      3.839  0.003975018  22.6190        436
 3.90   0.0000    913.7256   1117.9791  42.97     206.4796     1.244           15     1.026      3.568  0.003978169  22.2628        437
 5.46   0.0002    914.5898    124.3071 -45.78     27.75969     0.995           15     0.864      3.982  0.003975919  24.4415        438
 3.50   0.0000    911.7667    837.0067  37.12     966.8795     1.355           15     1.304      3.898  0.003977719  20.5866        439
 3.50   0.0000    911.3054    999.6420  24.80     602.8026     1.219           15     1.175      3.705  0.003973218  21.0996        440
 3.50   0.0000    880.5363    182.0381 -38.97     393888.9     3.867           15     3.505      5.938  0.003976819  14.0616        441
 6.65   0.0001    907.8627    258.8675  52.11     77.67365     1.253           15     1.007      3.821  0.003975018  23.3243        442
 5.04   0.0000    907.8105      3.4959  -7.19     169.1158     1.307           15     1.081      4.567  0.003437135  22.4795        443
 4.56   0.0000    907.0887    657.8475  43.72     261.0107     1.223           15     1.186      3.905  0.003974569  22.0084        444
 7.04   0.0001    908.0129     87.5296 -89.83     65.37895     0.813           15     0.499      3.681  0.003979518  23.5114        445
 3.50   0.0000    903.5164   1313.8160  87.07     383.6001     1.721           15     1.257      3.804  0.003977719  21.5903        446
 4.94   0.0000    903.2176    733.5343  10.01     244.4595     0.954           15     0.909      3.884  0.003977719  22.0795        447
 3.50   0.0000    899.4386    301.0883 -21.09     7138.792     1.718           15     1.702      4.011  0.003975919  18.4159        448
 5.42  78.4839    902.6472    120.3407 -49.68 5.502194e-05     0.985           15     0.844      4.350  0.003976369  38.6987        449
 3.99   0.0000    895.2024    537.0011   7.32     1314.388     2.365           15     1.971      4.695  0.003977719  20.2532        450
 4.34   0.0000    899.2005    449.7508 -46.26     113.1657     0.736           15     0.557      2.298  0.003979518  22.9157        451
 3.50   0.0000    898.5992    378.3526 -44.08     205.0789     0.989           15     0.830      2.768  0.003979518  22.2702        452
 3.80   0.0000    896.2007    985.9028 -65.28     255.2353     1.349           15     1.096      3.876  0.003975919  22.0326        453
 6.04   0.0000    897.3219    727.9781   1.55     94.42574     0.729           15     0.672      3.890  0.003977269  23.1123        454
 3.50   0.0000    892.9716   1424.8123 -15.48     424.2057     1.348           15     1.271      3.467  0.003977719  21.4811        455
 6.54   0.0000    894.1020   1570.1129  -6.01     119.1776     0.902           15     0.751      3.617  0.003972317  22.8595        456
 3.50   0.0000    879.3785   1591.1549 -62.18     59002.27     2.163           15     2.036      3.624  0.003977719  16.1228        457
 8.40   0.0002    891.5288   1272.4713 -44.99     28.63937     0.505           15     0.493      3.030  0.003973217  24.4076        458
 7.45   0.0002    890.3057   1220.3147 -44.49     28.16086     0.557           15     0.343      2.663  0.003972317  24.4259        459
 4.38   0.0000    887.5998    324.2739  12.94     815.8738     2.317           15     1.681      5.273  0.003978169  20.7709        460
 3.50   0.0000    884.7410   1303.1981  75.62     628.0507     2.215           15     1.415      4.362  0.003979518  21.0550        461
 3.50   0.0000    887.6968    679.4929 -39.65     236.0565     1.485           15     1.173      3.690  0.003972767  22.1175        462
 4.62   0.0000    888.2027    989.3417  74.47     89.14805     0.742           15     0.447      2.499  0.003979518  23.1747        463
 3.50   0.0000    884.8168   1498.7977 -46.66     919.0716     1.366           15     1.290      3.587  0.003975919  20.6416        464
 7.82   0.0000    886.6954     12.8620 -31.07     142.0325     0.871           15     0.602      4.551  0.003975018  22.6690        465
 4.81   0.0000    883.8887    337.3006  26.18     452.1215     2.122           15     1.365      4.625  0.003972317  21.4119        466
 6.24   0.0000    882.1483    443.6690  20.73     104.6673     0.902           15     0.688      4.405  0.003975018  23.0005        467
 4.16   0.0000    877.1147   1175.5325 -18.23     955.4524     2.080           15     2.026      4.358  0.003974118  20.5995        468
 3.50   0.0000    878.5627    670.3316 -29.48     251.0466     1.540           15     1.409      4.101  0.003976819  22.0506        469
 4.59   0.0000    877.6625    222.5747  88.66     2731.265     8.719           15     3.465     11.904  0.003977719  19.4591        470
 3.50   0.0000    876.5948    959.5047 -79.09     602.3367     1.289           15     1.221      3.819  0.003975919  21.1004        471
 3.50   0.0000    858.2089   1223.1375 -42.20       182614     3.445           15     2.518      4.167  0.003979518  14.8962        472
 3.50   0.0000    866.6861    937.9076  43.73     997.0542     2.547           15     1.557      5.401  0.003973218  20.5532        473
 3.50   0.0000    868.3865    642.1345  64.28     435.6562     1.208           15     1.085      3.911  0.003978618  21.4521        474
 3.86   0.0001    868.9888   1434.9374   8.40     66.83149     0.789           15     0.770      2.940  0.003979068  23.4875        475
 3.50   0.0000    865.7175    453.1240 -24.91     203.8505     1.218           15     1.040      3.779  0.003974118  22.2767        476
 6.99   0.0001    911.4835    457.5421 -54.55     47.33421     0.501           15     0.497      3.008  0.003974569  23.8621        477
 6.08   0.0001    864.7985   1175.9866   5.77     73.55178     1.178           15     1.053      3.660  0.003975919  23.3835        478
 6.56   0.0001    865.8102    814.8403  45.72     60.52347     0.755           15     0.565      4.318  0.003977269  23.5952        479
 3.50   0.0000    863.9714   1477.8024  47.19     163.3603     1.102           15     0.956      3.751  0.003975919  22.5171        480
 6.41 147.4841    909.2690    758.5991 -71.28 2.929658e-05     0.749           15     0.451      2.964  0.003978618  39.3830        481
 5.85   0.0000    863.2290    772.0788   9.50     114.3572     1.228           15     0.837      4.731  0.003975919  22.9043        482
 5.98   0.0000    863.4698    353.5137  30.65     190.6657     1.029           15     1.016      4.051  0.003973668  22.3493        483
 4.72   0.0000    861.0288    266.6384  31.69     120.3328     1.568           15     1.033      4.316  0.003977719  22.8490        484
 3.50   0.0000    859.6398   1552.9724  32.19     188.3273     1.148           15     0.968      3.718  0.003978169  22.3627        485
 3.50   0.0000    858.6971   1155.9250 -56.66     930.0321     1.416           15     1.332      3.667  0.003974118  20.6288        486
 5.09   0.0000    861.0914    635.3044  14.31     115.4428     1.009           15     0.758      4.186  0.003972767  22.8941        487
 3.50   0.0000    857.5663   1338.0850 -63.42     713.3663     1.611           15     1.387      3.838  0.003976819  20.9167        488
 6.89   0.0000    857.5911    572.8773 -26.69     251.9807     1.630           15     0.770      5.159  0.003978169  22.0466        489
 4.26   0.0000    854.6438    543.5765 -83.91     303.3051     1.617           15     1.270      4.149  0.003977719  21.8453        490
 5.25   0.0000    909.3325   1573.9618  -1.64     118.1658     1.186           15     0.984      3.691  0.003976819  22.8688        491
 7.42   0.0000    854.8513   1428.6572 -19.16     113.4402     0.935           15     0.687      4.312  0.003976369  22.9131        492
 6.92   0.0001    854.9912    685.0032  43.99     77.50509     0.917           15     0.527      4.261  0.003975469  23.3267        493
 6.15   0.0000    854.0582   1346.4340  -1.78     93.58649     1.030           15     0.777      4.001  0.003977719  23.1220        494
 3.50   0.0000    849.9979   1301.8927   6.80     92.05524     0.893           15     0.752      3.138  0.003975018  23.1399        495
 7.69   0.0000    847.9819   1458.7313 -88.90     98.45895     0.671           15     0.443      3.149  0.003978169  23.0669        496
 5.40   0.0000    846.7172   1562.2914  43.95     116.7349     0.950           15     0.757      3.681  0.003974569  22.8820        497
 5.26   0.0000    845.4421    359.5751   0.35      440.529     2.402           15     1.473      6.252  0.003978618  21.4401        498
 3.50   0.0000    843.9017   1062.4144 -66.76     571.7035     1.299           15     1.234      3.632  0.003975469  21.1571        499
 3.50   0.0000    842.4244   1104.7135  23.53     1080.504     1.893           15     1.500      4.020  0.003976819  20.4659        500
 6.49   0.0002    841.5250   1496.4904 -43.62     20.41945     0.505           15     0.494      3.031  0.003973668  24.7749        501
 5.87   0.0000    839.9103    545.6884 -21.13      119.608     0.925           15     0.681      4.042  0.003972767  22.8556        502
 5.63   0.0000    837.5941    898.5250 -48.44     166.9151     1.330           15     0.892      5.219  0.003979068  22.4938        503
 3.50   0.0000    836.8246    990.4078 -12.61     235.4148     1.278           15     1.128      3.598  0.003976819  22.1204        504
 3.50   0.0000    835.5145    297.0743 -21.56     1567.072     1.481           15     1.463      4.015  0.003973668  20.0623        505
 3.50   0.0000    835.7469   1519.0468 -32.55      241.442     1.132           15     1.030      3.246  0.003977269  22.0930        506
 4.21   0.0001    837.2447    493.3615  72.92     69.86546     0.745           15     0.448      2.621  0.003978618  23.4393        507
 3.50   0.0000    834.6254    817.6035 -27.22     390.1875     1.266           15     1.166      3.672  0.003976369  21.5718        508
 3.50   0.0000    868.4336   1102.0602 -58.18     2413.734     2.098           15     1.880      3.992  0.003977269  19.5933        509
 5.28   0.0000    830.7745    403.0079  89.03     132.4271     0.886           15     0.754      3.902  0.003977269  22.7451        510
 7.43   0.0001    830.7037   1057.6527 -42.48      31.1892     0.566           15     0.338      2.087  0.003974118  24.3150        511
 3.50   0.0000    822.0414    652.7550  82.83     7022.288     1.739           15     1.725      3.891  0.003977269  18.4338        512
 6.26   0.0001    825.9578    597.4583 -88.91     37.22453     0.785           15     0.498      3.451  0.003975919  24.1229        513
 3.98   0.0000    875.3674    540.0736 -52.83     244.4733     1.226           15     1.152      4.001  0.003975919  22.0794        514
 4.77   0.0000    823.8602    673.1241  46.34     144.2293     0.815           15     0.674      3.812  0.003975469  22.6524        515
 4.22   0.0000    821.0692    329.1193 -57.14     163.8775     1.069           15     0.848      3.664  0.003974569  22.5137        516
 3.50   0.0000    818.8883   1397.0548 -47.99     192.5031     1.091           15     1.064      3.621  0.003974569  22.3389        517
 5.71   0.0001    818.5995   1574.1520 -79.31     51.84549     0.861           15     0.603      3.375  0.003979518  23.7632        518
 3.50   0.0000    817.9454    701.0992  -5.45     263.2265     1.095           15     1.079      3.790  0.003972767  21.9992        519
 7.24   0.0001    818.4544    745.4844 -23.65     72.91448     0.500           15     0.497      3.001  0.003974118  23.3930        520
 3.50   0.0000    814.6810    876.8893  83.37     310.3453     1.616           15     1.435      3.635  0.003974118  21.8204        521
 3.50   0.0000    816.1353    432.0022 -17.63     203.5947     1.162           15     1.030      3.688  0.003979518  22.2781        522
 7.06   0.0001    816.5355    598.5270 -41.29     36.33567     0.501           15     0.497      3.006  0.003974569  24.1492        523
 3.50   0.0000    818.0857    777.6890 -59.97      190.106     1.300           15     0.811      2.481  0.003974118  22.3525        524
 3.50  40.4528    808.9895   1543.1666  57.66 0.0001067862     1.136           15     1.036      2.065  0.003977719  37.9787        525
 3.50   0.0000    808.5921    842.6832 -70.50     94.16328     0.919           15     0.796      2.839  0.003976369  23.1153        526
 7.30   0.0001    826.0181    666.4921  87.92     44.13504     0.789           15     0.499      3.551  0.003976369  23.9380        527
 3.50   0.0000    802.1636   1377.2766 -69.91     6708.479     1.736           15     1.651      3.599  0.003975919  18.4834        528
 3.50   0.0000    797.5810    694.0712 -88.16     18373.43     2.540           15     1.802      4.351  0.003979068  17.3895        529
 3.50   0.0000    799.6675     39.3221 -29.10     3114.435     1.807           15     1.542      4.047  0.003973218  19.3166        530
 7.01   0.0026    800.8705   1595.1715  49.26     1.579012     0.799           15     0.678      3.184  0.003794922  27.5540        531
 5.70   0.0001    797.8364    177.1653  81.26     78.28244     1.225           15     0.848      4.003  0.003979518  23.3158        532
 4.82   0.0000    793.4406    293.9878 -72.35     182.3535     1.487           15     1.192      4.443  0.003977269  22.3977        533
 3.50   0.0000    788.5342    407.2974  68.93     97.34613     0.981           15     0.947      3.240  0.003975018  23.0792        534
 4.22   0.0000    785.3290   1347.5829  22.92     99.21773     0.892           15     0.783      3.430  0.003979068  23.0585        535
 3.50   0.0000    773.2756   1425.9465 -89.53      2068.45     3.775           15     2.243      5.791  0.003974569  19.7609        536
 7.68   0.0000    781.2097    472.5957 -70.97     114.8172     0.742           15     0.452      3.830  0.003975469  22.9000        537
 4.62   0.0001    780.2191   1265.1827 -39.81     75.36973     0.792           15     0.666      2.760  0.003976819  23.3570        538
 7.53   0.0001    778.2861   1366.3441 -41.89     34.04786     0.560           15     0.340      2.691  0.003974118  24.2198        539
 7.40   0.0000    777.1037    475.3149 -22.43     114.0933     0.936           15     0.673      3.760  0.003972317  22.9068        540
 3.61   0.0000    765.5530    390.1704 -41.67     1359.927     1.521           15     1.498      4.003  0.003978618  20.2162        541
 3.94   0.0000    767.0451    138.3304 -52.97      369.473     1.580           15     1.419      4.250  0.003975469  21.6310        542
 3.80   0.0000    766.5131    928.8765  38.23     161.5812     1.226           15     1.123      3.549  0.003973218  22.5290        543
 7.31   0.0002    768.4933    349.4540 -76.97     19.03426     0.500           15     0.498      3.000  0.003974569  24.8512        544
 7.95   0.0001    764.6229    368.6672  52.83     49.20443     1.473           15     0.632      3.305  0.003977719  23.8200        545
 3.50   0.0000    763.4185    565.9860 -13.80     155.4548     1.121           15     0.932      3.517  0.003976369  22.5710        546
 6.87   0.0002    763.5124   1010.5046  44.84      19.3668     0.512           15     0.488      2.811  0.003972317  24.8324        547
 7.59   0.0001    763.7062    292.6659 -42.81     50.78854     0.560           15     0.341      2.867  0.003975469  23.7856        548
 6.14   0.0001    762.5088   1570.5133 -45.38      47.7518     0.504           15     0.496      3.022  0.003972767  23.8525        549
 3.50   0.0000    756.5867   1339.8333 -42.46     230.4512     1.989           15     1.058      3.799  0.003977269  22.1436        550
 5.90   0.0001    758.4918    540.5508  71.42     57.29261     0.500           15     0.497      3.002  0.003974569  23.6548        551
 5.95   0.0000    757.3130    104.2901 -57.36      190.562     1.097           15     0.892      5.120  0.003972767  22.3499        552
 4.51   0.0000    753.7781    194.2249  70.13     520.9658     2.055           15     1.887      5.455  0.003977269  21.2580        553
 6.09   0.0001    751.9322    431.6724 -86.68     84.35931     1.185           15     0.958      3.873  0.003973668  23.2347        554
 8.63   0.0000    753.5063    163.4724  54.39     101.9361     0.501           15     0.498      3.004  0.003974569  23.0292        555
 3.50   0.0000    751.6179   1078.6741 -49.49     172.3089     1.048           15     0.892      2.871  0.003979068  22.4592        556
 6.82   0.0000    746.9681    444.1413  44.35     127.5337     1.605           15     0.964      4.674  0.003977719  22.7859        557
 5.97   0.0000    746.5100   1108.5317  64.24     88.63036     0.500           15     0.499      3.001  0.003974118  23.1810        558
 3.50   0.0000    723.1765    403.1586 -38.55     218515.6     2.732           15     2.426      4.517  0.003978169  14.7013        559
 3.50   0.0000    741.8317    554.6776 -39.14     1629.166     1.558           15     1.484      3.897  0.003976369  20.0201        560
 7.32   0.0001    740.1066    370.4930  12.70     81.27326     1.028           15     0.875      5.135  0.003972317  23.2751        561
 4.98   0.0001    740.4764    917.9952   2.69      62.9278     0.789           15     0.499      3.489  0.003977719  23.5529        562
 7.42   0.0001    740.0167    120.9845  43.41     71.55918     0.896           15     0.533      4.631  0.003976819  23.4133        563
 3.50   0.0000    738.4902   1271.3287  50.55     120.9401     1.127           15     0.782      3.855  0.003974569  22.8436        564
 3.50   0.0000    737.0906   1156.6687 -48.73      571.131     1.332           15     1.237      3.647  0.003974118  21.1582        565
 3.50   0.0000    725.6438    846.8092  -8.10     50990.24     2.092           15     2.050      4.236  0.003977719  16.2813        566
 3.56   0.0000    735.1107    648.1402   1.49     633.8265     1.314           15     1.279      3.774  0.003974569  21.0451        567
 8.06   0.0001    732.6804     95.6733 -44.66     34.47618     0.568           15     0.338      2.836  0.003974569  24.2062        568
 6.22   0.0000    729.0665    751.7090  80.10     99.91325     1.363           15     0.980      4.930  0.003975018  23.0509        569
 3.50   0.0000    726.5311   1176.7500 -35.84       1110.1     1.427           15     1.384      3.785  0.003975018  20.4366        570
 3.50   0.0000    727.9200   1542.3892 -15.43     133.1105     0.984           15     0.733      2.879  0.003977719  22.7395        571
 3.50   0.0000    720.4925   1393.5988   9.56     444.7159     1.516           15     1.226      3.736  0.003975469  21.4298        572
 3.78   0.0001    721.3456    260.6550 -42.60     72.59993     0.999           15     0.873      3.118  0.003976369  23.3977        573
 5.99   0.0001    745.4609    364.1542 -47.15     57.55777     1.013           15     0.717      4.027  0.003976369  23.6497        574
 3.50   0.0000    714.8616    806.8423  -2.43     1416.309     1.453           15     1.415      3.807  0.003976819  20.1721        575
 6.87   0.0000    743.6679    839.2269  -5.82      233.485     1.520           15     1.427      4.870  0.003977269  22.1294        576
 3.50   0.0000    708.0568   1162.3643  25.23     1455.808     1.431           15     1.423      3.565  0.003977719  20.1422        577
 5.49   0.0000    709.3889    193.4371  40.53     148.2623     1.342           15     0.903      4.803  0.003977269  22.6224        578
 3.50   0.0000    703.1896   1337.6470 -74.76     1416.384     2.279           15     1.886      3.932  0.003978618  20.1720        579
 5.33   0.0000    706.8637    537.0084  10.37     159.5628     1.122           15     1.112      3.706  0.003979518  22.5427        580
 3.50   0.0000    701.9553    950.9884 -45.14     2590.222     1.654           15     1.543      3.719  0.003977269  19.5167        581
 6.30   0.0000    704.7881    610.4400 -69.71     114.7882     0.747           15     0.451      2.976  0.003977269  22.9003        582
 9.47   0.0000    704.5004    603.4851  45.60     90.27696     0.505           15     0.495      3.031  0.003971866  23.1611        583
 6.32   0.0000    744.9675    833.1708 -58.87     100.5345     1.061           15     0.660      3.701  0.003977719  23.0442        584
 5.98   0.0001    702.2057    632.3746  73.41      33.4157     0.728           15     0.456      3.455  0.003977269  24.2401        585
 4.72   0.0000    700.6744    649.9207   6.43      127.698     0.736           15     0.659      3.315  0.003975018  22.7845        586
 4.06   0.0000    697.9974    581.0242   6.67     639.7152     2.426           15     1.403      5.506  0.003976369  21.0350        587
 8.32   0.0004    697.4959    484.5135 -71.34     10.66102     0.966           15     0.414      3.543  0.003972317  25.4805        588
 5.82   0.0001    696.0619   1199.0396  43.69     77.91167     0.869           15     0.534      4.235  0.003976819  23.3210        589
 4.42   0.0000    695.5082    275.3399 -46.93     95.52645     0.985           15     0.851      3.662  0.003974569  23.0997        590
 3.50   0.0000    690.8049   1212.2382  24.39     895.1877     1.676           15     1.412      4.327  0.003976819  20.6702        591
 3.64   0.0000    685.6292   1212.3169 -39.22     313.4327     1.448           15     1.149      3.633  0.003976819  21.8096        592
 3.50   0.0000    690.9694    314.4736 -88.87     255.7746     1.419           15     1.330      4.179  0.003975919  22.0304        593
 5.58   0.0000    682.1342    470.7790 -62.39     1234.855     4.207           15     4.002      8.074  0.003977719  20.3210        594
 5.86   0.0001    688.7242    666.9899  65.11     77.83979     1.003           15     0.597      4.432  0.003979068  23.3220        595
 3.50   0.0000    684.5392    642.6725 -87.73     2104.529     1.757           15     1.587      3.988  0.003975469  19.7421        596
 7.82   0.0005    688.6877    367.6817 -44.68     8.226831     0.561           15     0.341      2.693  0.003974569  25.7619        597
 3.50   0.0000    686.5309    129.1956 -68.31     328.5039     1.222           15     1.194      3.924  0.003978618  21.7586        598
 5.50   0.0001    686.2997   1043.4269  30.75     64.86009     0.951           15     0.534      3.636  0.003974118  23.5201        599
 4.45   0.0000    680.1216    541.8480 -73.56      1450.93     2.946           15     2.071      4.966  0.003975919  20.1459        600
 6.06   0.0000    684.1920    399.4240  55.21     171.3486     1.358           15     1.264      4.235  0.003976819  22.4653        601
 5.18   0.0001    683.1298   1564.1487 -47.60     75.80503     0.821           15     0.675      3.536  0.003975018  23.3508        602
 6.30   0.0003    681.6967    388.8220 -70.35     15.71558     0.961           15     0.674      4.472  0.003975018  25.0592        603
 5.90   0.0000    676.3763    199.5715  13.30     160.2971     0.952           15     0.801      4.428  0.003977719  22.5377        604
 4.39   0.0000    674.9564   1163.1382   1.42      105.387     0.921           15     0.751      3.513  0.003976369  22.9930        605
 5.66   0.0729    672.8073    424.1614 -46.19   0.05928028     0.754           15     0.563      3.274  0.003977269  31.1177        606
 5.03   0.0000    671.9017    229.6998  15.72     181.4562     1.293           15     1.122      4.584  0.003972767  22.4031        607
 4.55   0.0000    668.2275   1219.9333 -72.12     269.2408     1.550           15     1.474      4.058  0.003976819  21.9746        608
 6.98   0.0001    668.9756    526.3870  55.61     68.24126     1.008           15     0.994      4.100  0.003976369  23.4649        609
 3.50   0.0000    665.8412   1178.6086 -73.27     173.0822     1.061           15     0.934      3.295  0.003977719  22.4544        610
 3.50   0.0000    665.4398   1068.4226  47.86     91.29851     0.995           15     0.848      3.221  0.003977719  23.1488        611
 6.56  93.8126    665.5073    413.5073  18.73 4.598461e-05     0.975           15     0.411      4.840  0.003972317  38.8935        612
 5.39   0.0001    661.9376     80.7693   1.96     63.76643     0.935           15     0.741      3.853  0.003976819  23.5385        613
 3.50   0.0000    647.4383   1462.9248 -65.69     50111.09     2.033           15     1.959      3.934  0.003976369  16.3002        614
 6.37   0.0000   1508.4961   1207.4698 -54.80     140.8336     0.501           15     0.498      3.005  0.003975018  22.6782        615
 5.56   0.0000    649.5137   1159.3687 -16.72      193.718     1.369           15     0.895      4.711  0.003976819  22.3321        616
 6.77   0.0001    646.1516   1152.8938  42.03     79.64112     0.842           15     0.668      3.533  0.003973668  23.2972        617
 4.07   0.0000    644.7930    651.3752 -43.29     464.9859     1.258           15     1.211      3.778  0.003977719  21.3814        618
 3.50   0.0000    638.8214    535.1672  42.53     11706.95     1.888           15     1.816      3.952  0.003977269  17.8789        619
 3.51   0.0000    640.3278    274.9030 -27.79      224.251     1.396           15     1.143      4.096  0.003974118  22.1732        620
 8.83   0.0001    641.5058   1305.5179  45.77     35.89648     0.505           15     0.494      3.031  0.003974118  24.1624        621
 7.32   0.0002    637.3436    551.6595  82.50     26.80015     1.481           15     0.868      4.363  0.003975018  24.4797        622
 6.22   0.0002    638.3812    390.6560 -43.97     26.69514     1.033           15     0.874      4.509  0.003977269  24.4839        623
 8.71   0.0000    636.4829    646.4597  69.64     91.20503     0.500           15     0.498      3.000  0.003974569  23.1500        624
 3.50   0.0000    629.7294    804.6353  57.10     683.1421     1.347           15     1.284      3.846  0.003977269  20.9637        625
 3.50   0.0001    630.3719    853.8053 -21.80     74.36782     1.096           15     0.863      2.965  0.003976819  23.3715        626
 7.22   0.0002    631.4944     67.4594 -47.98     26.18976     0.507           15     0.491      3.041  0.003974569  24.5047        627
 3.50   0.0001    628.4142    940.7632 -89.84     70.27761     0.920           15     0.723      2.172  0.003978169  23.4330        628
 4.49   0.0001    625.8839    131.8183 -48.93     73.37643     0.823           15     0.662      2.593  0.003977269  23.3861        629
 3.50   0.0000    622.6724   1580.3527  13.45     1154.439     1.402           15     1.390      3.286  0.003975469  20.3941        630
 7.43   0.0376    625.4872   1286.4760  45.85    0.1147949     0.507           15     0.493      3.040  0.003973217  30.4002        631
 6.10   0.0000    623.9185    342.5090   5.19     90.99789     1.334           15     0.903      4.661  0.003975018  23.1524        632
 6.64   0.0001    622.9833   1077.7543 -89.15     42.70301     0.680           15     0.430      2.924  0.003977719  23.9739        633
 3.67   0.0000    617.2492   1150.4242 -12.63     458.5188     2.261           15     1.411      3.611  0.003978618  21.3966        634
 6.28   0.0000    618.4885     93.1205 -24.59     118.0425     1.295           15     0.927      4.510  0.003974118  22.8699        635
 3.50   0.0001    615.0236   1233.4672  87.54     85.86103     1.092           15     0.931      3.431  0.003977719  23.2155        636
 3.50   0.0000    615.5867    117.1060 -73.69     109.0853     0.995           15     0.741      2.610  0.003975919  22.9556        637
 4.44   0.0001    612.8958   1366.7953  39.23     67.81709     1.253           15     1.115      3.528  0.003975919  23.4717        638
 8.68   0.0007    614.3477    530.3157 -46.40     5.836916     0.576           15     0.334      2.790  0.003974118  26.1345        639
 6.30   0.0000    614.1476    288.1102 -44.12     101.7137     0.829           15     0.670      4.429  0.003975469  23.0316        640
 3.50   0.0000    610.5753    994.0144  -0.25     96.01402     1.143           15     0.948      3.310  0.003975919  23.0942        641
 7.44   0.0001    608.4723   1334.3445 -71.18     66.95827     1.604           15     0.914      5.080  0.003974569  23.4855        642
 4.38   0.0001    610.1757    961.7768  47.67     53.17178     0.782           15     0.667      3.146  0.003977719  23.7358        643
 3.50   0.0000    608.4755    943.9404  49.50      268.746     1.213           15     0.989      3.871  0.003975469  21.9766        644
 3.50   0.0000    928.7836   1176.9725 -83.69     16425.68     1.787           15     1.772      3.842  0.003977269  17.5112        645
 3.50   0.0001    606.5281   1009.5546 -58.12     76.66463     0.876           15     0.865      3.052  0.003975469  23.3385        646
 3.50   0.0000    604.5884    584.8540 -69.25     1198.184     1.500           15     1.436      3.773  0.003979068  20.3537        647
 4.80   0.0000   1537.9054    504.3604 -79.66     237.5058     1.326           15     1.004      4.050  0.003973218  22.1108        648
 7.25   0.0002    603.2171    511.6554 -30.94     20.80037     1.087           15     0.798      4.088  0.003977719  24.7548        649
 3.50   0.0000    653.7339    869.2443 -79.24     643.1813     1.348           15     1.292      3.777  0.003976369  21.0292        650
 6.14   0.0001    601.7967    763.1487  43.01     62.43623     0.821           15     0.670      3.605  0.003979518  23.5614        651
 4.47   0.0000    599.8069   1424.6536 -77.55     125.7022     1.116           15     0.996      3.568  0.003980417  22.8016        652
 6.00   0.0000    598.2537    666.6852 -64.15     118.4291     1.101           15     0.878      4.147  0.003974569  22.8664        653
 7.70   0.0001    597.5757    356.2340 -19.66     59.20274     0.749           15     0.451      3.966  0.003977269  23.6191        654
 4.96   0.0001    595.9663   1124.0198 -47.83      63.4025     0.796           15     0.776      3.588  0.003977719  23.5447        655
 4.29   0.0000    592.9527    881.0997  71.99     131.4458     1.215           15     1.098      4.296  0.003971416  22.7531        656
 8.49   0.8076    592.2861   1355.9847   0.91  0.005347249     0.727           15     0.681      4.364  0.003976369  33.7297        657
 4.35   0.0000   1592.2582   1383.2957 -11.28     356.7607     1.526           15     1.129      3.970  0.003973668  21.6691        658
 5.12   0.0000   1552.9885   1370.2683 -84.68      99.8232     0.732           15     0.663      3.541  0.003979068  23.0519        659
 3.50   0.0000   1531.6090    414.0503   4.22     745.3528     1.813           15     1.592      4.531  0.003979068  20.8691        660
 3.50   0.0000   1583.9221   1107.3611  85.18      2085.81     1.496           15     1.456      3.625  0.003975919  19.7518        661
 4.01   0.0000   1540.0460    328.3202  81.78     149.2332     0.725           15     0.669      2.459  0.003975018  22.6153        662
 5.40   0.0000   1584.9180   1068.0917 -36.90     559.3047     1.156           15     1.084      3.800  0.003975469  21.1809        663
 3.50   0.0000    916.6985   1111.4067 -71.93     100.6613     0.945           15     0.613      2.276  0.003975469  23.0428        664
 6.04   0.0000   1588.4656   1334.4880  43.28     110.7343     0.508           15     0.491      3.048  0.003975469  22.9393        665
 5.29   0.0000    918.7391   1343.1337  67.03     112.0045     0.904           15     0.679      4.363  0.003975018  22.9269        666
 3.50   0.0000   1540.7058    133.3067 -30.45     4340.164     1.597           15     1.574      4.022  0.003972767  18.9562        667
 3.50   0.0000    927.3387   1321.0692 -66.03     1155.842     1.490           15     1.389      3.724  0.003975018  20.3928        668
 5.12   0.0001    924.6558    308.9607 -63.67     75.49589     0.904           15     0.680      3.469  0.003977269  23.3552        669
 3.50   0.0000   1574.2085   1489.8726  48.94     449.0247     1.094           15     0.981      3.478  0.003978169  21.4193        670
 5.47   0.0000   1585.3646    639.9453  55.17     211.3648     1.007           15     0.830      4.577  0.003977269  22.2374        671
 4.00   0.0000   1570.4760   1337.0015  61.29     192.4897     0.979           15     0.669      2.952  0.003977719  22.3390        672
 4.68   0.0000    921.6179   1197.6613 -59.71     165.6456     1.778           15     1.226      4.065  0.003976819  22.5020        673
 5.36   0.0000    915.8979    251.5081  60.89     233.3504     2.122           15     1.145      5.093  0.003973218  22.1300        674
 8.47   0.0000   1585.4020   1081.1866  19.32     137.2618     0.746           15     0.449      4.479  0.003975919  22.7061        675
 5.82   0.0000   1556.3767    736.7157 -18.27     157.6971     0.913           15     0.634      3.154  0.003976369  22.5554        676
 7.10   0.0000   1552.9561   1231.5955  13.46      220.625     0.994           15     0.749      4.050  0.003978169  22.1909        677
 3.50   0.0000   1580.4094   1412.8583  60.08       401.29     1.413           15     1.197      3.999  0.003979518  21.5414        678
 4.75   0.0000    925.0792    664.7285  57.75     173.1245     1.136           15     1.000      3.751  0.003974569  22.4541        679
 3.50   0.0000   1569.3855     90.9244 -41.91     2280.425     1.547           15     1.465      4.106  0.003979068  19.6550        680
 3.50   0.0000   1560.2655    859.8251  74.07      1645.12     1.435           15     1.356      3.886  0.003977269  20.0095        681
 4.39   0.0000    924.9524     44.9539 -10.40     236.7323     1.120           15     1.100      4.037  0.003978169  22.1144        682
 3.50   0.0000   1562.5890    302.4531 -45.85     47509.09     2.014           15     1.964      4.428  0.003979068  16.3581        683
 5.13   0.0000   1534.6698    918.3033 -41.64     393.8994     0.969           15     0.847      3.948  0.003975469  21.5615        684
 3.50   0.0000   1565.5536     20.2132  87.94     2726.105     1.566           15     1.552      4.010  0.003977269  19.4611        685
 3.50   0.0000   1557.0251    485.9522 -48.14     46123.04     2.023           15     1.971      4.310  0.003978618  16.3902        686
 3.50   0.0000   1535.1492   1427.4189 -48.79     650.7529     2.269           15     1.117      4.174  0.003977719  21.0165        687
 6.11   0.0000   1563.3801   1056.7480 -16.56     169.7772     0.735           15     0.457      3.052  0.003977719  22.4753        688
 3.50   0.0000   1551.5602    680.5723 -23.98     17053.51     5.059           15     4.234      9.582  0.003978169  17.4705        689
 3.75   0.0000   1561.5504    384.5741 -86.12     448.0695     1.969           15     1.012      4.372  0.003979068  21.4216        690
 3.81   0.0000   1545.0364    861.9048  43.89     1370.548     1.943           15     1.700      4.226  0.003973668  20.2078        691
 3.62   0.0000   1564.7646    782.9753 -75.08     1684.571     2.289           15     1.662      4.131  0.003976819  19.9838        692
 3.50   0.0000   1561.7708   1564.7494 -64.12     358.9605     1.056           15     1.024      3.424  0.003978169  21.6624        693
 3.50   0.0000   1537.6019    261.7692 -29.99     293.0367     1.067           15     0.935      3.337  0.003976369  21.8827        694
 6.15   0.0000   1551.1417    131.7934  45.45     150.5048     0.821           15     0.672      4.370  0.003979518  22.6061        695
 4.06   0.0000   1549.9312   1220.6552 -15.27     805.6456     1.317           15     1.206      3.410  0.003975018  20.7846        696
 6.60   0.0000   1533.5510    973.9435 -45.96     474.9968     1.599           15     1.063      5.085  0.003976369  21.3583        697
 3.50   0.0000   1550.4473    350.6767  67.18     130.4524     0.938           15     0.819      3.018  0.003975018  22.7614        698
 3.50   0.0000   1433.4296   1089.0938 -39.84     98388.78     2.279           15     2.139      4.042  0.003975469  15.5676        699
 5.45   0.0000   1527.4613    731.5829  51.89     382.5743     1.479           15     1.129      4.307  0.003976369  21.5932        700
 6.31   0.0000   1528.1403    548.5298 -30.90     115.0173     1.042           15     0.466      3.211  0.003975919  22.8981        701
 3.50   0.0000   1541.5586    652.9531 -77.26     3142.147     1.612           15     1.584      4.031  0.003977719  19.3069        702
 6.23   0.0000   1534.5162   1151.1300 -54.21     122.9128     0.909           15     0.671      3.930  0.003973668  22.8260        703
 7.75   0.0001   1529.3199    894.3311 -44.47      66.4427     0.570           15     0.337      2.652  0.003974118  23.4939        704
 6.87   0.0000   1535.1721   1059.8419 -49.98     134.5059     0.753           15     0.567      3.793  0.003978169  22.7281        705
 5.11   0.0000   1521.6088     12.4769  -7.77     367.6826     1.164           15     1.074      4.149  0.003978169  21.6363        706
 3.50   0.0000   1551.0107   1512.1771   1.13     202.2653     0.881           15     0.749      2.979  0.003976369  22.2852        707
 4.90   0.0000   1518.9514   1099.4447 -74.39     611.3702     1.797           15     1.408      4.405  0.003977719  21.0842        708
 3.50   0.0000    938.2679   1065.6361  78.67      2049.64     1.518           15     1.428      3.705  0.003977269  19.7708        709
 3.50   0.0000   1518.1683     83.3237  15.59     461.8467     1.472           15     1.288      4.196  0.003976369  21.3888        710
 3.50   0.0000   1506.1298    267.6162 -47.10     30202.47     1.913           15     1.896      4.272  0.003979068  16.8499        711
 3.50   0.0000   1522.6522    377.0815  64.85      365.882     1.751           15     1.044      4.950  0.003974569  21.6416        712
 3.50   0.0000   1514.4874   1545.7643  74.89     689.3918     1.728           15     1.297      3.893  0.003975469  20.9538        713
 4.91   0.0000   1526.1040    877.5257 -49.22     287.7298     1.023           15     0.927      3.914  0.003974569  21.9025        714
 4.39   0.0000   1487.1908     76.3170  -5.75     663.9274     1.362           15     1.208      4.163  0.003976369  20.9947        715
 4.67   0.0000   1501.4293   1412.0208  86.71     188.8569     1.052           15     0.777      3.695  0.003976819  22.3597        716
 7.30   0.0001   1524.4740   1214.5237  44.72     83.51585     0.505           15     0.493      3.031  0.003974569  23.2456        717
 7.12   0.0001   1511.4639      3.5066  40.99     62.82087     0.504           15     0.495      3.023  0.003440257  23.5547        718
 5.75   0.0000   1503.3700   1310.4868  39.29     261.2838     1.047           15     0.937      3.533  0.003976819  22.0072        719
 3.50   0.0000   1513.8733    390.9593   5.83     9011.605     1.729           15     1.693      4.002  0.003976369  18.1630        720
 4.74   0.0000   1495.4766    928.6411 -51.51     205.1807     1.114           15     0.767      3.815  0.003975919  22.2697        721
 3.52   0.0000   1513.5613    482.0047 -34.15     920.3943     1.236           15     1.187      3.967  0.003976819  20.6401        722
 3.50   0.0000    931.4564   1116.4851   8.64     177.2363     1.019           15     1.005      3.164  0.003974569  22.4286        723
 8.03   0.0001   1491.4912   1094.4882 -45.23     69.62341     0.504           15     0.496      3.023  0.003973217  23.4431        724
 5.69   0.0000   1502.9541   1095.0155 -33.18      351.959     1.143           15     1.119      3.717  0.003977269  21.6838        725
 5.31   0.0000   1500.3174    678.8658  69.82     239.7604     0.944           15     0.676      3.953  0.003973668  22.1006        726
 3.50   0.0000   1497.6678    842.9132 -81.73     684.4702     1.148           15     1.129      3.706  0.003973668  20.9616        727
 5.68   0.0001   1470.8156    428.6272  73.27     45.20377     0.747           15     0.452      3.415  0.003977269  23.9121        728
 3.50   0.0000   1503.1013    721.7958  86.02     1210.415     1.452           15     1.342      3.894  0.003975919  20.3427        729
 6.42   0.0001   1465.1569    117.1400  45.47     45.04618     0.764           15     0.574      3.469  0.003976819  23.9159        730
 4.11   0.0000   1496.6438    671.8790 -68.72     109.1305     0.852           15     0.694      2.723  0.003975469  22.9551        731
 4.81   0.0000   1496.0406   1123.2915  87.25     130.2357     0.731           15     0.665      3.026  0.003973668  22.7632        732
 4.29   0.0000    951.0742     59.9048  79.43     286.8482     1.471           15     1.233      4.001  0.003974118  21.9059        733
 4.41   0.0000    937.2828    514.7414  60.58     677.4226     2.450           15     1.768      5.157  0.003974569  20.9729        734
 4.53   0.0000   1496.9937   1231.2518   3.86     203.8038     0.885           15     0.749      3.638  0.003979967  22.2770        735
 4.74   0.0000    946.3591    131.8014 -53.15     284.0925     1.219           15     1.077      4.157  0.003977719  21.9163        736
 4.40   0.0000    948.6333    265.9599  45.46     248.5937     1.080           15     1.058      4.053  0.003978169  22.0613        737
 3.50   0.0000   1481.3420    573.6694 -42.68     901.4114     2.344           15     1.538      4.433  0.003975469  20.6627        738
 3.50   0.0000    946.7222    443.5330  -8.94     436.1681     1.342           15     1.216      3.894  0.003973218  21.4509        739
 6.58   0.0000   1493.3007    870.6550  48.87     205.4231     0.973           15     0.752      4.401  0.003972767  22.2684        740
 7.10   0.2690    937.0173    218.5196  89.34   0.01606316     0.784           15     0.500      3.451  0.003978169  32.5354        741
 3.71   0.0000    940.5369    724.2392  51.69     225.0857     1.253           15     1.154      4.175  0.003976819  22.1691        742
 7.95   0.0000   1482.4895    766.5070  44.88     99.18593     0.507           15     0.493      3.041  0.003973668  23.0589        743
 3.77   0.0000   1475.9598    197.0665  16.39     367.9516     1.276           15     1.094      4.045  0.003976819  21.6355        744
 4.75   0.0001    946.8138     42.5380  68.26     66.98263     1.260           15     0.899      4.348  0.003977269  23.4851        745
 6.91   0.0001   1450.6354   1163.2859 -73.75     75.55113     1.507           15     0.858      9.044  0.003976819  23.3544        746
 3.50   0.0000    949.3659    825.2734  22.84     107.4673     1.103           15     0.906      3.299  0.003975919  22.9718        747
 6.48   0.0001    951.6313   1301.6997 -47.92     37.44986     0.577           15     0.332      2.058  0.003973218  24.1164        748
 4.57   0.0000    977.1621    451.1198 -42.03     252.9522     1.434           15     1.264      4.281  0.003975919  22.0424        749
 6.01   0.0000   1477.3461   1022.5084  46.49     249.5746     1.400           15     0.771      3.540  0.003975018  22.0570        750
 6.26   0.0000   1453.5001    165.0627   2.38     144.7457     0.788           15     0.499      3.947  0.003974569  22.6485        751
 8.16   0.0001   1457.3400   1158.3164 -46.07      69.3101     0.573           15     0.336      2.636  0.003974569  23.4480        752
 6.39   0.0000   1401.2941     61.0093   0.56     86.74886     0.740           15     0.671      4.338  0.003975919  23.2043        753
 7.15   0.0000   1464.1952    446.6033 -70.86     102.2467     0.759           15     0.446      3.128  0.003975469  23.0259        754
 6.63   0.0000   1474.9757   1569.1626   1.47     259.3892     0.929           15     0.765      3.618  0.003976819  22.0151        755
 5.09   0.0000    952.3457   1502.9412 -74.55     105.4104     0.953           15     0.747      3.449  0.003975469  22.9928        756
 4.58   0.0000   1474.1271    996.7732 -17.04     948.8244     2.786           15     1.350      5.717  0.003977269  20.6070        757
 5.31   0.0000   1466.8153   1126.9644  38.48     204.3544     1.293           15     0.934      4.078  0.003977719  22.2740        758
 8.13   0.0001   1453.3553    660.3170 -46.60     82.66201     0.579           15     0.332      2.662  0.003975469  23.2567        759
 4.93   0.0000    958.5584    891.6923 -66.47      118.521     0.907           15     0.818      3.704  0.003972767  22.8655        760
 3.50   0.0000   1434.2593    223.0052 -34.69     4355.471     1.599           15     1.561      4.063  0.003979518  18.9524        761
 7.40   0.0000   1457.4885   1112.3357  89.99      101.687     0.915           15     0.472      3.833  0.003975018  23.0318        762
 7.40   0.0000   1461.2001   1381.2024 -45.48     302.1866     0.982           15     0.347      2.787  0.003977719  21.8493        763
 4.15   0.0000    954.2116   1027.9540  88.46     141.8967     0.891           15     0.746      3.046  0.003977269  22.6701        764
 3.50   0.0000    949.6531    652.6551  89.17     907.5247     2.301           15     1.607      4.450  0.003976369  20.6554        765
 5.61   0.0000   1450.6129   1223.6906 -83.03      235.294     1.350           15     0.910      3.977  0.003976369  22.1210        766
 5.30   0.0000   1453.9030    921.1025  44.42     205.3645     0.835           15     0.654      3.765  0.003972767  22.2687        767
 4.85   0.0000    976.0895   1279.0640 -32.46     157.1462     0.782           15     0.776      3.555  0.003975018  22.5592        768
 6.68   0.0007   1454.9850   1143.2863  86.95     6.277748     0.728           15     0.664      3.540  0.003976369  26.0555        769
 3.50   0.0000   1452.4902    389.9425  -2.38     376.0395     1.049           15     0.919      3.473  0.003974569  21.6119        770
 4.11   0.0000   1456.9529    610.4000  86.60     222.6758     1.103           15     0.933      3.623  0.003979518  22.1808        771
 3.94   0.0000   1437.7501   1269.6799 -57.52     825.2759     1.278           15     1.216      3.790  0.003975018  20.7585        772
 7.81   0.0000   1436.7727    995.5588  70.04     111.4129     0.743           15     0.454      4.461  0.003978618  22.9327        773
 4.13   0.0000   1448.3926     86.3629 -47.33     247.9286     1.023           15     0.926      3.788  0.003977719  22.0642        774
 3.50   0.0000   1438.7820    617.5147   4.87     3338.498     1.524           15     1.485      3.813  0.003976819  19.2411        775
 5.47   0.0001   1396.0732   1101.5632  42.09     40.87978     0.986           15     0.914      4.767  0.003976369  24.0212        776
 7.04   0.0000   1431.5087   1279.1774 -47.31     110.9151     1.234           15     0.621      3.841  0.003975469  22.9375        777
 6.80   0.0001   1437.4752    178.5237  44.91     60.28761     0.508           15     0.491      3.047  0.003974569  23.5994        778
 7.80   0.0001   1444.3118   1513.6656  43.90      75.4752     0.568           15     0.338      3.409  0.003975469  23.3555        779
 3.50   0.0000   1431.2135    339.0968  20.60     731.8467     1.990           15     1.305      4.829  0.003975919  20.8889        780
 5.86   0.0000    962.9711    422.4233   3.06     377.5343     1.054           15     0.774      5.495  0.003977269  21.6076        781
 6.65   0.0000    973.0317    546.8406  32.87     108.9882     1.182           15     0.985      3.749  0.003978618  22.9566        782
 3.50   0.0000   1418.4038   1124.8384 -72.98      19833.9     2.080           15     1.918      3.873  0.003976819  17.3065        783
 3.50   0.0000   1419.3446    427.6806 -38.79     212.3003     1.047           15     0.853      3.064  0.003974118  22.2326        784
 3.50   0.0000   1435.2393   1345.9718 -43.42     527.0006     1.188           15     1.124      3.595  0.003978169  21.2455        785
 3.50   0.0000   1436.1769    386.0578 -41.40     88.00612     0.812           15     0.657      2.063  0.003978169  23.1887        786
 7.81   0.0000   1436.1604   1370.9841 -35.83     121.6839     0.942           15     0.470      3.823  0.003978169  22.8369        787
 3.50   0.0000   1410.8943    365.4972 -65.97      281.897     2.343           15     0.783      3.076  0.003972317  21.9248        788
 6.33   0.0002   1381.7640   1208.4288 -70.91      20.9402     0.745           15     0.456      2.948  0.003977269  24.7475        789
 3.50   0.0000   1407.1147    306.5825 -31.76     3198.051     1.536           15     1.465      4.058  0.003976819  19.2878        790
 3.85   0.0000    964.1137    414.7538  -9.76     432.9769     1.304           15     1.195      3.952  0.003975919  21.4588        791
 4.68   0.0000    981.2909   1485.5188 -87.99     250.7006     1.074           15     0.965      3.671  0.003974569  22.0521        792
 3.82   0.0000   1437.7800    645.7078   3.42     405.2491     1.472           15     1.033      4.128  0.003976369  21.5307        793
 3.50   0.0000   1392.3254    112.7036 -56.48     61269.95     2.068           15     2.004      4.506  0.003974569  16.0819        794
 4.03   0.0001    975.6126     70.4914 -17.49     35.42605     0.946           15     0.797      3.064  0.003976369  24.1767        795
 3.50   0.0000   1410.1560    348.3412  51.54     1084.522     1.900           15     1.498      4.306  0.003976369  20.4619        796
 6.05   0.0000   1384.6268   1383.2850 -19.26     238.6819     1.134           15     0.863      4.744  0.003976369  22.1055        797
 3.76   0.0000    979.9752    796.2892 -70.10     987.0875     2.008           15     1.747      4.068  0.003975919  20.5641        798
 4.36   0.0000    985.7134    452.4680  60.58      1549.03     2.341           15     2.037      6.633  0.003973668  20.0749        799
 3.94   0.0000    977.8196   1064.9083 -42.01     145.6915     0.814           15     0.660      2.480  0.003976369  22.6414        800
 6.47   0.0000   1417.7408    105.0746 -29.06     180.2156     1.123           15     0.779      4.008  0.003975018  22.4105        801
 3.50   0.0000   1414.4266   1385.1614  46.25     2230.145     1.469           15     1.449      3.707  0.003977719  19.6792        802
 3.62   0.0000    983.6367    952.3669 -44.22     149.0783     1.025           15     0.849      3.119  0.003978169  22.6165        803
 3.67   0.0078   1445.3171    729.8318 -74.08    0.5540777     1.171           15     1.106      3.612  0.003976369  28.6911        804
 4.01   0.0000   1399.6986   1029.9487  28.88     1317.141     1.765           15     1.515      3.915  0.003971866  20.2509        805
 3.50   0.0000   1405.3016    328.1954 -37.62     980.6392     1.261           15     1.229      3.855  0.003975919  20.5712        806
 3.50   0.0000   1365.6362   1158.5677 -63.30     387807.8     2.845           15     2.655      4.214  0.003977719  14.0785        807
 3.50  20.7038   1422.7793   1595.5918  31.97 0.0001961441     1.065           15     0.783      2.080  0.003739345  37.3186        808
 7.19   0.0000   1402.3248   1343.8771 -74.55     250.6558     1.063           15     0.744      3.896  0.003974569  22.0523        809
 3.50   0.0000   1391.2926   1037.2573 -48.51     2467.132     1.539           15     1.516      3.787  0.003974118  19.5695        810
 3.86   0.0000   1307.3774    792.8642 -18.88     92.63375     0.750           15     0.444      2.109  0.003977719  23.1331        811
 4.19   0.0000   1302.2607     40.9732  89.54     155.7548     0.893           15     0.745      3.258  0.003977719  22.5689        812
 5.45   0.0000   1091.9540    427.5959  30.78      473.963     2.388           15     1.739      5.146  0.003979068  21.3606        813
 4.70   0.0000   1402.8423   1361.7327  83.63     406.3107     1.140           15     1.077      3.649  0.003976369  21.5279        814
 6.97   0.0000   1383.4489      6.5013  15.45      86.0274     0.500           15     0.497      3.001  0.003868244  23.2134        815
 5.16   0.0000   1391.6453   1533.0005 -74.64     442.5786     1.527           15     1.111      4.044  0.003979068  21.4350        816
 6.72   0.0000    990.3224      7.2940 -25.09     299.7478     1.673           15     1.270      4.471  0.003940203  21.8581        817
 4.45   0.0000   1358.6310   1133.6863  78.76     6590.085     9.855           15     6.782     11.041  0.003976819  18.5028        818
 7.20   0.0000   1400.5957     89.6927  -7.99     110.6084     0.977           15     0.476      4.206  0.003975018  22.9405        819
 7.18   0.0001   1381.8853   1047.6293  15.10     77.39383     1.066           15     0.735      4.012  0.003976819  23.3282        820
 5.76   0.0000   1386.4846    675.8115 -89.60     112.9434     0.946           15     0.739      3.772  0.003976819  22.9178        821
 3.50   0.0000   1387.6274   1583.8241 -18.53     281.0012     1.134           15     0.917      3.430  0.003977719  21.9282        822
 3.50   0.0000   1389.3979    711.6812  70.43     3299.283     1.634           15     1.546      3.942  0.003977269  19.2540        823
 3.50   0.0000   1387.8724   1427.1166 -71.54     8964.034     1.694           15     1.675      3.636  0.003973668  18.1687        824
 6.35   0.0001   1388.0507   1100.8662  66.25     44.52312     1.192           15     0.951      4.119  0.003975919  23.9285        825
 6.93   0.0001   1388.4099   1020.1890  20.31     76.15565     0.746           15     0.446      3.655  0.003975018  23.3457        826
 3.50   0.0000   1378.0994    317.4728 -15.04     465.9939     1.376           15     1.150      3.951  0.003973218  21.3790        827
 4.59   0.0000    992.2519    498.1241 -23.05     193.4758     1.113           15     0.989      3.708  0.003974118  22.3334        828
 3.50   0.0000    983.9276    556.8610 -48.34      26667.8     1.912           15     1.889      4.073  0.003975469  16.9850        829
 4.05   0.0000   1387.8507    805.0400 -29.36     799.3162     1.230           15     1.207      3.856  0.003976819  20.7932        830
 3.99   0.0000   1351.8099    473.9129 -85.68     200.4958     0.896           15     0.747      3.201  0.003976819  22.2947        831
 3.50   0.0000   1297.3156    723.3217 -20.30     121944.3     2.701           15     2.156      4.399  0.003974569  15.3346        832
 4.69   0.0000    991.4377    344.4911 -43.11     241.6689     1.063           15     0.845      3.682  0.003974569  22.0919        833
 3.50   0.0000   1371.5348   1017.4493 -34.23     9819.101     1.948           15     1.786      3.872  0.003975919  18.0698        834
 7.31   0.0000   1301.8456    937.4248  89.96     164.7524     1.586           15     0.842      3.682  0.003978618  22.5079        835
 8.50   0.0001   1370.6716   1405.6733 -45.08     50.75866     0.572           15     0.336      2.769  0.003973218  23.7862        836
 4.62   0.0000   1369.9498    705.0203  41.73     135.3754     0.784           15     0.760      3.824  0.003977269  22.7211        837
 7.30   0.0000   1312.0013    998.1616 -57.62     115.9885     1.281           15     1.275      3.919  0.003976819  22.8890        838
 3.50   0.0000   1306.4843    668.0394 -49.85      3150.74     1.977           15     1.621      3.900  0.003976369  19.3040        839
 3.63   0.0000   1367.2496    147.8044  46.57     418.9177     1.153           15     1.008      3.803  0.003979068  21.4947        840
 6.96   0.0000   1125.0598    164.7228 -85.29     153.2753     0.729           15     0.669      3.979  0.003975018  22.5863        841
 5.32   0.0023   1367.9484   1068.1727  47.52     1.882902     0.822           15     0.659      3.671  0.003978169  27.3629        842
 3.84   0.0000   1171.6482    231.0432 -46.36     247.7809     1.066           15     1.028      3.971  0.003977719  22.0648        843
 5.45   0.0000   1369.7667   1213.9174 -42.47     242.4813     1.132           15     1.007      3.917  0.003976369  22.0883        844
 3.77   0.0000   1359.7997   1242.0375 -86.53     97.18875     0.877           15     0.746      3.127  0.003977269  23.0810        845
 3.50   0.0000   1351.9924    965.6970 -86.84     225.4061     0.730           15     0.674      2.472  0.003976369  22.1676        846
 6.54   0.0001   1364.6437    360.7301 -49.77     65.58934     0.557           15     0.340      2.097  0.003975469  23.5079        847
 5.65   0.0000   1361.7979    525.0864 -83.79     231.4483     1.492           15     0.793      4.724  0.003976369  22.1389        848
 3.85   0.0000   1305.6521    572.7681 -17.18     265.9414     1.199           15     0.919      3.485  0.003978169  21.9880        849
 3.50   0.0000   1345.2526    603.5727 -59.61     605.9556     1.416           15     1.254      3.926  0.003978169  21.0939        850
 5.91   0.0000   1305.5100    506.4787 -55.14     118.8476     0.500           15     0.499      3.001  0.003973668  22.8625        851
 3.92   0.0000   1361.6725    389.3143 -16.74     311.0386     1.392           15     0.890      3.794  0.003973668  21.8180        852
 3.53   0.0000   1303.8020    891.3098 -39.64     1014.494     1.359           15     1.336      3.702  0.003975018  20.5344        853
 3.85   0.0000   1351.1841    150.2923  83.06     706.2449     2.464           15     1.713      5.099  0.003976819  20.9276        854
 6.50   0.0000   1361.8060   1110.3491  49.86     195.8658     1.235           15     0.928      3.598  0.003979518  22.3201        855
 6.14   0.0000   1342.3513    988.7007 -12.86     173.6031     1.163           15     0.614      4.194  0.003971416  22.4511        856
 7.27   0.0035   1350.6754   1068.6743 -44.95     1.218944     0.570           15     0.337      2.124  0.003974569  27.8350        857
 4.94   0.0000   1305.3479    842.9401 -67.81     440.4411     1.273           15     1.226      4.698  0.003975469  21.4403        858
 3.50   0.0000   1345.9407    192.7328 -18.74     280.3923     1.095           15     1.034      3.296  0.003975469  21.9306        859
 6.80   0.0000   1308.0303    295.4801  88.97     160.9476     0.802           15     0.499      3.710  0.003976369  22.5333        860
 6.66   0.0000   1314.3894   1133.0525  73.83     112.8629     0.986           15     0.751      3.697  0.003979068  22.9186        861
 3.50   0.0000   1328.8596    654.2327  13.29     3511.419     1.781           15     1.681      3.831  0.003977269  19.1863        862
 3.50   0.0000   1331.7177    105.6777 -30.20     1260.899     1.425           15     1.332      4.044  0.003974569  20.2983        863
 6.87   0.0000   1338.0420   1478.8149   3.64     187.5348     0.924           15     0.747      3.355  0.003977719  22.3673        864
 6.98   0.0019   1330.7288   1185.0148   0.39     2.287469     0.739           15     0.679      4.262  0.003979518  27.1516        865
 3.50   0.0000   1318.9834    658.3448  15.17     27268.41     1.906           15     1.876      4.238  0.003978169  16.9608        866
 3.50   0.0000   1329.3904    385.2614   0.76     777.5723     1.317           15     1.245      3.833  0.003979068  20.8231        867
 4.95   0.0000   1384.8027   1272.4777  24.98     570.3618     1.670           15     1.445      4.312  0.003977269  21.1596        868
 4.85   0.0000   1209.7734    827.6089  22.76     259.9149     1.440           15     1.101      4.080  0.003976819  22.0129        869
 7.22   0.0002   1327.8995   1117.3518  22.63     22.50053     0.916           15     0.689      3.823  0.003971416  24.6695        870
 3.91   0.0000   1261.1660    853.7747 -72.84     711.4995     1.343           15     1.191      3.695  0.003976819  20.9196        871
 5.36   0.0000   1329.7987   1138.1609 -79.21     1055.119     2.730           15     1.787      4.059  0.003977269  20.4917        872
 6.40   0.0000   1299.1119    845.1188 -41.83     126.7302     0.823           15     0.665      3.917  0.003974118  22.7928        873
 5.01   0.0000   1316.0168   1355.6858  85.56     124.5737     0.734           15     0.670      3.286  0.003976819  22.8114        874
 6.60   0.0000   1306.1716   1306.5820 -69.91     93.88058     0.728           15     0.453      3.267  0.003976819  23.1186        875
 7.18   0.0001   1325.5175    582.4985 -44.01     83.04348     0.504           15     0.495      3.025  0.003972317  23.2517        876
 5.60   0.0001   1317.3491    995.2732 -49.28     63.15091     0.556           15     0.341      2.746  0.003974118  23.5490        877
 7.41   0.0000   1325.6764    493.3161  45.38     147.8955     0.566           15     0.339      3.393  0.003974118  22.6251        878
 5.23   0.0000   1324.2227    631.9188  10.71        296.8     1.829           15     0.858      4.391  0.003976819  21.8688        879
 3.50   0.0000   1318.3081    262.3835 -43.16     1111.414     1.325           15     1.272      3.810  0.003976819  20.4353        880
 6.06   0.0001   1322.4181    957.7775 -19.81     69.13359     0.733           15     0.453      2.925  0.003976819  23.4508        881
 4.70   0.0004   1311.0145    269.8142  29.53     10.33452     0.793           15     0.495      2.528  0.003976819  25.5143        882
 3.50   0.0000   1105.7854   1265.6273  14.09     176.9085     0.948           15     0.920      3.471  0.003977269  22.4306        883
 3.96   0.0000   1306.5707   1034.5878 -39.45      2371.02     2.833           15     2.201      4.548  0.003977719  19.6127        884
 3.54   0.0000   1272.8245    696.5016 -45.82     462.7917     1.457           15     1.252      3.990  0.003974118  21.3865        885
 3.50   0.0000   1290.3949    760.6170 -27.37     7136.583     2.292           15     1.741      3.751  0.003975919  18.4163        886
 3.50   0.0000   1276.5549    341.9075   0.20     330.7029     1.034           15     0.932      3.499  0.003973218  21.7514        887
 4.73   0.0000   1282.9822    860.6912 -87.39     115.1686     0.730           15     0.683      3.118  0.003976369  22.8967        888
 3.50   0.0000   1271.7925    608.2729 -57.95     10606.46     4.667           15     2.658      6.980  0.003978618  17.9861        889
 3.64   0.0000   1211.9116   1427.8796  71.19     1652.543     2.929           15     2.361      4.870  0.003974118  20.0046        890
 3.91   0.0000   1298.1710     52.1966 -40.71     612.4007     1.167           15     1.128      3.939  0.003976819  21.0824        891
 3.50   0.0000   1164.2910   1298.2390 -59.60      41902.4     1.990           15     1.934      4.018  0.003974118  16.4944        892
 3.90   0.0000   1290.6599    544.2174 -22.07     402.4225     1.130           15     1.052      3.823  0.003976819  21.5383        893
 3.50   0.0000   1094.6219   1525.1770 -27.34     1074.155     1.351           15     1.273      3.681  0.003977269  20.4723        894
 6.29   0.0001   1097.9957    861.5091  87.45     65.21328     0.779           15     0.499      3.290  0.003975018  23.5142        895
 3.50   0.0000   1291.6217    411.0580  33.48     1407.773     1.389           15     1.364      4.067  0.003978169  20.1787        896
 6.98   0.0000   1100.2325    111.4873   8.10     158.8433     1.359           15     0.688      4.906  0.003976819  22.5476        897
 5.50   0.0000   1292.7173   1089.9248  33.73     122.3606     0.990           15     0.870      3.942  0.003974118  22.8309        898
 6.66   0.0001   1123.6699    756.6686 -45.01     32.23051     1.200           15     0.700      3.875  0.003973218  24.2793        899
 3.50   0.0000   1258.4600    430.8142  -1.79     1831.985     2.321           15     2.127      5.196  0.003976819  19.8927        900
 6.99   0.0000   1120.7468    739.7029   5.26     88.85979     1.121           15     0.999      4.202  0.003973218  23.1782        901
 3.50   0.0000   1277.2112   1329.9398 -81.87     4871.438     1.670           15     1.607      3.681  0.003978618  18.8309        902
 6.84   0.0000   1194.9495   1051.7402  22.21     226.9611     1.394           15     1.156      3.841  0.003975919  22.1601        903
 6.97   0.0001   1283.8115    335.5794  70.43     85.47089     0.733           15     0.454      3.475  0.003976369  23.2205        904
 4.16   0.0000   1128.6464    503.2986 -51.44      292.159     0.994           15     0.868      3.583  0.003971416  21.8860        905
 3.95   0.0000   1282.2820   1567.5828 -26.26     278.5467     0.953           15     0.922      3.297  0.003977269  21.9378        906
 3.50   0.0000   1172.3646    206.6083 -36.87      234.606     0.984           15     0.859      3.173  0.003977719  22.1242        907
 7.52   0.0000   1128.5692    872.3491  50.26     192.8749     1.096           15     0.945      5.084  0.003978169  22.3368        908
 5.91   0.0000   1175.6841     17.3702 -21.72     260.0096     1.513           15     0.855      4.303  0.003976369  22.0125        909
 3.72   0.0330   1176.0363   1597.4006 -76.06    0.1137984     1.029           15     0.998      3.571  0.003455308  30.4097        910
 3.50   0.0000   1150.6958    692.2518 -39.28     367502.5     2.949           15     2.729      4.705  0.003973218  14.1368        911
 3.50   0.0000   1220.4930    993.4185 -38.78     684288.8     7.411           15     6.969      7.392  0.003976369  13.4619        912
 3.50   0.0000   1261.2974    214.4021 -17.06     439.2251     1.149           15     1.049      3.305  0.003975919  21.4433        913
 4.75   0.0000   1078.1774    920.7841   1.45     189.6598     1.076           15     0.991      3.930  0.003975919  22.3551        914
 6.89   0.0000   1154.3459   1123.8079 -16.13     130.3997     0.773           15     0.442      3.829  0.003979967  22.7618        915
 3.50   0.0000   1241.5431    671.1663 -25.51     1138.643     1.372           15     1.341      3.871  0.003977719  20.4090        916
 5.75   0.0000   1237.0851    855.9023 -73.54     469.9052     1.518           15     1.205      4.070  0.003972317  21.3700        917
 5.38   0.0000   1222.0548    828.7744   4.01     96.16708     0.905           15     0.744      3.543  0.003978169  23.0924        918
 3.50   0.0000   1233.3180    303.1342  28.83     3188.597     1.552           15     1.517      3.966  0.003973668  19.2910        919
 4.52   0.0000   1242.9990    612.2227  22.63     280.7344     1.096           15     0.991      3.681  0.003976369  21.9293        920
 7.82   0.0003   1266.6520   1225.3042  47.06      15.5511     0.570           15     0.336      3.423  0.003973218  25.0706        921
 5.83   0.0000   1252.5331   1087.0895  82.20     122.6162     1.182           15     0.718      4.384  0.003975018  22.8286        922
 4.25   0.0000   1220.3372   1429.9244  67.75     726.3157     1.397           15     1.140      3.853  0.003974569  20.8972        923
 3.58   0.0000   1150.1428     97.7475 -34.24     1600.032     1.522           15     1.414      3.994  0.003975919  20.0397        924
 7.50   0.0000   1227.6160    913.8480 -53.87     160.7886     1.907           15     1.525      3.310  0.003977719  22.5344        925
 3.50   0.0000   1264.4142    806.2877 -53.13     3786.048     1.593           15     1.571      3.902  0.003976819  19.1045        926
 5.01   0.0000   1228.8615    597.3871   5.47     851.7865     2.081           15     2.001      4.338  0.003977719  20.7242        927
 5.57   0.0001   1243.4988   1537.5070 -45.16     81.39695     0.504           15     0.496      2.375  0.003973217  23.2735        928
 7.15   0.0000   1152.2003    574.8102 -43.26     292.4985     0.765           15     0.565      3.843  0.003975919  21.8847        929
 4.34   0.0000   1184.2825    312.3333 -36.13     322.4066     0.998           15     0.910      3.568  0.003974118  21.7790        930
 3.50   0.0000   1236.5986     46.4781 -25.53     624.8913     1.261           15     1.241      4.056  0.003977719  21.0605        931
 3.50   0.0000   1236.1543   1552.2007 -64.98     2021.933     1.582           15     1.452      3.588  0.003979068  19.7856        932
 3.50   0.0000   1209.7395   1277.4863  80.71     9129.604     6.176           15     3.717      9.718  0.003974569  18.1489        933
 3.50   0.0000   1018.5303   1153.2947   0.29     212.9575     1.111           15     0.957      3.251  0.003974569  22.2293        934
 3.50   0.0000   1218.0138   1193.4822  60.90     11139.45     2.049           15     1.918      3.576  0.003977719  17.9328        935
 3.72   0.0000   1171.4756    756.1273 -39.66     5495.515     3.922           15     3.823      7.572  0.003974118  18.7000        936
 7.42   0.0001   1186.3083   1131.6680  43.81     82.72816     0.566           15     0.339      3.394  0.003975018  23.2559        937
 3.50   0.0000   1213.5752    511.3511 -71.46     16928.67     1.824           15     1.812      4.109  0.003978618  17.4784        938
 7.41   0.0013   1207.4937    897.5193  46.85     3.358111     0.502           15     0.497      3.014  0.003974118  26.7348        939
 3.55   0.0000   1071.1847   1217.5300 -73.77     1835.508     2.621           15     2.147      4.525  0.003979518  19.8906        940
 3.50   0.0000   1200.0367   1440.7338  59.02      1351.85     1.878           15     1.677      4.050  0.003977269  20.2227        941
 3.50   0.0000   1137.4583    146.3166 -43.84     28956.77     1.940           15     1.910      4.350  0.003974569  16.8956        942
 3.50   0.0000   1195.9851   1332.1587  -1.55     115.2164     0.903           15     0.752      3.005  0.003977719  22.8962        943
 7.05   0.0000   1207.5237    394.5313  51.21     101.7796     0.500           15     0.498      3.001  0.003973217  23.0308        944
 4.93   0.0000   1196.2183   1199.2244  47.96     152.8755     0.747           15     0.560      3.503  0.003976819  22.5892        945
 4.02   0.0000   1209.6367   1414.3615  10.28      364.985     1.431           15     1.090      3.607  0.003978169  21.6443        946
 3.50   0.0000   1206.7356    837.2420 -42.35     2100.335     1.525           15     1.459      3.755  0.003976369  19.7443        947
 4.38   0.0000   1208.1086   1453.4905 -89.78     122.4723     0.780           15     0.500      2.539  0.003972767  22.8299        948
 3.50   0.0000   1200.7378    337.4176 -86.10     2036.368     1.499           15     1.465      3.851  0.003977269  19.7779        949
 3.50   0.0000   1129.1438    217.8241  -0.95     743.9186     1.675           15     1.375      4.144  0.003977719  20.8712        950
 4.11   0.0000   1202.2880   1074.0604  36.47     1554.586     2.310           15     1.847      4.182  0.003974569  20.0710        951
 8.31   0.0001   1219.6639     73.3258  45.46     73.23552     0.575           15     0.335      3.451  0.003974118  23.3882        952
 6.94   0.0001   1223.4916    403.4926  44.85     80.47369     0.501           15     0.498      3.009  0.003972767  23.2859        953
 4.01   0.0000   1194.0066    122.5322 -66.08     1758.613     2.595           15     2.094      4.604  0.003979068  19.9371        954
 5.73   0.0000   1197.2484    411.0043   9.50     91.55223     0.726           15     0.678      3.555  0.003979068  23.1458        955
 3.50   0.0000   1180.6753    174.5650  31.55     664.8818     1.240           15     1.192      4.096  0.003975919  20.9931        956
 5.16   0.0000   1179.3643   1402.4216 -43.13     192.8427     1.084           15     0.936      4.036  0.003977269  22.3370        957
 5.99   0.0000   1181.9445    672.2570 -42.84      424.011     1.526           15     1.348      3.625  0.003975919  21.4816        958
 7.90   0.4652   1187.8514    935.5063  81.99  0.009277564     1.068           15     0.969      5.388  0.003974118  33.1314        959
 7.09   0.0000   1192.6534   1420.2950  47.58     99.08235     0.566           15     0.338      3.394  0.003974569  23.0600        960
 5.47   0.0000   1185.2479    389.9908  -3.32      104.299     0.735           15     0.673      3.370  0.003978618  23.0043        961
 5.82   0.0001   1185.9545   1232.9056  71.99       63.036     0.967           15     0.706      3.228  0.003973218  23.5510        962
 6.78   0.0000   1174.8807    251.6942 -20.68     170.1205     0.927           15     0.680      4.125  0.003974118  22.4731        963
 7.66   0.0000   1178.2037   1306.0736  31.19     122.7767     1.002           15     0.647      5.905  0.003979068  22.8272        964
 3.84   0.0000   1144.4308    768.3480 -61.37     333.8587     1.766           15     1.205      4.045  0.003977719  21.7411        965
 3.65   0.0000   1179.9652    547.8386  32.35     817.9002     1.345           15     1.310      3.871  0.003977719  20.7682        966
 3.66   0.0000   1124.3577    274.8493  65.66     177.9648     0.871           15     0.691      2.869  0.003977719  22.4242        967
 4.46   0.0660   1166.0645   1598.8287  86.76   0.05237007     1.452           15     1.004      4.446  0.003183052  31.2523        968
 5.77   0.0000   1155.5414    349.9696 -85.86     164.5253     1.017           15     0.784      4.012  0.003978169  22.5094        969
 4.53   0.0000   1179.1803    804.8383 -43.92     92.07539     0.759           15     0.567      2.576  0.003978169  23.1396        970
 8.49   0.0003   1159.9895    652.1605   0.92     15.86313     0.974           15     0.762      4.724  0.003977269  25.0490        971
 6.95   0.0002   1166.3401    638.0865 -66.78     19.98471     0.914           15     0.686      4.883  0.003974569  24.7983        972
 3.96   0.0000   1160.7228    886.1577  -9.24     721.3314     1.344           15     1.222      3.814  0.003975919  20.9047        973
 4.56   0.0000   1154.9893    565.8511 -79.33     315.6002     1.539           15     1.143      4.205  0.003979068  21.8022        974
 3.50   0.0000   1152.6722   1351.5509   3.54     1092.031     1.706           15     1.688      3.922  0.003974569  20.4544        975
 8.20   0.0044   1217.3180    929.2001  72.09    0.9757394     1.071           15     0.661      4.176  0.003976819  28.0767        976
 3.50   0.0000   1129.2723   1143.1709 -67.34     161.1097     0.894           15     0.672      1.947  0.003976819  22.5322        977
 6.56   0.0253   1205.9277    721.4816  87.99    0.1706288     0.760           15     0.499      3.507  0.003973668  29.9699        978
 7.08   0.0062   1161.4742      1.5288 -45.40    0.5331137     0.505           15     0.493      3.032  0.003045729  28.7330        979
 6.94   0.0001   1156.6169    969.4316 -35.03     70.87421     1.048           15     1.007      3.716  0.003977719  23.4238        980
 3.50   0.0000   1156.7539    234.6796 -63.99     6413.486     1.698           15     1.682      4.149  0.003975018  18.5323        981
 4.93   0.0000   1157.0204    184.1851 -56.26     237.7323     1.314           15     1.109      4.459  0.003975919  22.1098        982
 5.31   0.0000   1146.6664    110.8157 -14.64     208.3537     1.115           15     0.936      4.195  0.003978169  22.2530        983
 4.90   0.0000   1145.7946    792.9576 -40.75     152.0568     0.822           15     0.658      3.323  0.003978169  22.5950        984
 3.55   0.0000   1203.2452   1216.0127  72.83     286.5034     1.166           15     1.061      3.569  0.003977269  21.9072        985
 4.34   0.0000   1144.5825   1337.3035 -25.99      165.213     1.687           15     0.609      2.823  0.003976369  22.5049        986
 6.99   0.0000   1140.5127    659.9366 -26.18     501.9419     2.202           15     1.702      3.982  0.003974569  21.2984        987
 4.16   0.0000   1132.9933    605.9082   6.92     360.2456     1.383           15     1.336      3.844  0.003975469  21.6585        988
 3.58   0.0000   1227.7882   1152.1394   0.47     563.1876     1.255           15     1.178      3.741  0.003978618  21.1734        989
 3.50   0.0000   1128.9299    181.7596 -62.42     17705.46     1.838           15     1.787      4.215  0.003976819  17.4297        990
 5.95   0.0000   1076.9996    467.1200  -3.34     140.8212     0.901           15     0.754      4.026  0.003977719  22.6783        991
 3.67   0.0000   1128.2001    545.7900 -55.11     727.8956     1.373           15     1.320      3.880  0.003975919  20.8948        992
 7.74   0.0001   1134.3350    249.3081 -46.33     33.70441     0.567           15     0.339      2.491  0.003975469  24.2308        993
 8.96   0.0000   1139.0133    423.5020  58.48     132.6138     0.815           15     0.306      4.494  0.003975018  22.7435        994
 4.23   0.0000   1130.0414    357.5908 -12.40     503.4934     1.289           15     1.086      3.856  0.003977719  21.2950        995
 3.50   0.0000   1119.3019    328.0937  58.93     2218.147     3.069           15     1.905      5.372  0.003973218  19.6850        996
 3.50   0.0000   1079.0317    510.4756 -17.11     29895.32     1.935           15     1.916      4.172  0.003975919  16.8610        997
 5.23   0.0000   1127.1694    836.2650  65.75     203.1398     1.093           15     0.868      3.687  0.003976819  22.2805        998
 7.69   0.0000   1121.9967    916.5061  88.18     97.51606     0.789           15     0.500      3.718  0.003975469  23.0773        999
 5.39   0.0001   1119.7373    638.2567  27.56     59.14157     1.204           15     0.859      4.588  0.003975919  23.6203       1000
 3.50   0.0000   1115.6307   1168.9203 -26.85     258.5062     1.664           15     1.118      3.881  0.003976369  22.0188       1001
 6.63   0.0000   1114.8882    505.8844 -45.23     106.4182     0.842           15     0.662      3.792  0.003974118  22.9825       1002
 4.88   0.0000   1113.0703    672.7094 -13.69     622.3051     1.399           15     1.336      3.928  0.003974118  21.0650       1003
 3.50   0.0000   1106.4395    426.3419  -6.24     7869.114     1.744           15     1.718      3.967  0.003976819  18.3102       1004
 7.35   0.0001   1116.6350    663.3422 -51.97     53.96561     1.219           15     0.828      3.509  0.003977719  23.7197       1005
 3.50   0.0000   1103.5203    750.2460 -80.04     12246.95     1.826           15     1.790      3.938  0.003975018  17.8299       1006
 5.22   0.0000   1104.6302    677.1617  40.68     671.7702     2.336           15     1.925     10.029  0.003977719  20.9819       1007
 5.79   0.0000   1107.8602   1122.0044 -88.69     163.3078     0.898           15     0.759      3.842  0.003979518  22.5175       1008
 5.00   0.0000   1110.1006    477.9549  24.60     1529.361     3.426           15     2.382      8.959  0.003972317  20.0887       1009
 6.91   0.0000   1107.0505    969.7090 -68.07      165.257     0.721           15     0.691      4.195  0.003975469  22.5046       1010
 3.50   0.0000   1093.6868   1134.7550  57.18     361.4706     1.188           15     1.118      3.819  0.003975469  21.6548       1011
 5.93   0.0000   1083.3468    844.8585  28.88     121.1526     0.864           15     0.597      4.443  0.003975919  22.8417       1012
 4.42   0.0000   1089.9325    466.4830 -60.63     912.9678     2.919           15     1.404      6.005  0.003974569  20.6489       1013
 6.88   0.0000   1104.0481    625.1927   0.90     98.98196     0.901           15     0.746      3.760  0.003978618  23.0611       1014
 3.50   0.0000   1093.8239    776.4821  69.63      26804.8     1.937           15     1.911      4.278  0.003976369  16.9795       1015
 8.51   0.0000   1100.4910   1350.5159 -45.58     113.1049     0.504           15     0.496      3.024  0.003973668  22.9163       1016
 3.52   0.0000   1078.3165    328.4367 -34.99     640.6372     1.289           15     1.259      3.764  0.003976819  21.0335       1017
 4.51   0.0000   1082.7537     41.2318 -15.07     593.6987     1.691           15     1.371      4.077  0.003978618  21.1161       1018
 3.50   0.0000   1020.2513   1267.1864  48.83      338.802     2.423           15     1.154      5.705  0.003978618  21.7251       1019
 3.50   0.0000   1085.4923   1451.3832  71.78     391.3194     1.706           15     1.265      3.985  0.003976819  21.5687       1020
 4.50   0.0000   1087.1938    395.1696  61.36     331.3834     1.472           15     1.152      4.152  0.003976819  21.7492       1021
 3.50   0.0000   1080.8446   1146.6871  66.88     10950.14     1.762           15     1.739      3.796  0.003975018  17.9515       1022
 3.50   0.0000   1088.2310    640.8409  80.19     3414.951     1.600           15     1.593      4.032  0.003978618  19.2165       1023
 4.11   0.0000   1031.0706   1166.3317  84.20     92.51941     0.725           15     0.656      2.740  0.003972767  23.1344       1024
 6.63   0.0001   1025.1965      5.7210 -25.84     51.35836     0.980           15     0.846      4.308  0.003782642  23.7735       1025
 4.69   0.0038   1092.2141     85.9862   0.59      1.13184     0.676           15     0.410      2.106  0.003976819  27.9155       1026
 6.49   0.0000   1086.1091   1010.4985 -89.77     120.6945     0.781           15     0.500      3.626  0.003972767  22.8458       1027
 4.01   0.0000   1058.9957    725.3413  23.12     928.0171     2.214           15     1.842      4.057  0.003979518  20.6311       1028
 4.09   0.0000   1059.5109    689.4767   0.05     89.42491     0.931           15     0.862      3.660  0.003973217  23.1714       1029
 3.80   0.0000   1065.7677    567.4854 -51.29     340.0971     1.440           15     1.191      3.938  0.003976819  21.7210       1030
 4.49   0.0000   1073.4939    350.8316  56.27     303.6042     1.567           15     1.167      4.391  0.003975018  21.8442       1031
 8.57   0.0001   1018.6888    125.6630 -43.76     29.10164     0.569           15     0.338      2.854  0.003975018  24.3902       1032
 3.50   0.0000   1067.1228   1472.6680  14.35     440.0943     2.820           15     1.652      5.459  0.003973218  21.4411       1033
 3.85   0.0000   1064.2731   1561.5967 -67.96     1104.439     2.917           15     1.883      5.173  0.003978169  20.4421       1034
 3.56   0.0000   1062.9010    290.3269 -17.97      273.554     1.324           15     1.091      3.601  0.003973218  21.9574       1035
 5.59   0.0000   1079.4127     51.4801 -43.27     173.2994     1.026           15     0.977      3.485  0.003977719  22.4530       1036
 3.50   0.0000   1064.8362   1595.6910 -33.63     102.3342     1.258           15     1.149      2.817  0.003726402  23.0249       1037
 4.26   0.0000   1062.2463      5.4891 -35.81     504.9002     1.293           15     1.202      4.039  0.003748426  21.2920       1038
 3.89   0.0000   1072.2120      5.1863  25.59     675.0906     1.357           15     1.306      4.147  0.003709074  20.9766       1039
 4.12   0.0000   1027.0326    462.3943  -3.86     164.5503     0.976           15     0.771      3.515  0.003977719  22.5093       1040
 8.50   0.0001   1063.4945   1411.5537 -76.20     59.55961     0.500           15     0.497      3.001  0.003973217  23.6126       1041
 4.74   0.0000   1046.8132   1157.0244  25.52     157.3052     1.027           15     0.833      3.514  0.003976369  22.5581       1042
 5.71   0.0000   1055.2206    663.4585   0.07     129.5885     0.965           15     0.723      3.899  0.003978169  22.7686       1043
 7.75   0.0000   1057.3187   1123.3470 -43.78     114.7023     0.577           15     0.333      2.766  0.003974118  22.9011       1044
 3.50   0.0000   1051.3563    236.0323  36.32     203.4704     1.449           15     1.124      4.298  0.003978618  22.2787       1045
 3.50   0.0000   1037.6909    523.7844  79.77     9297.134     1.779           15     1.739      3.946  0.003976819  18.1291       1046
 4.35   0.0000   1051.7396    398.9902 -86.66     238.8358     1.360           15     1.021      4.190  0.003979068  22.1047       1047
 5.52   0.0000   1052.6809   1383.9104   7.64      138.562     0.730           15     0.664      3.477  0.003974118  22.6959       1048
 4.83   0.0000   1039.5861    465.5739  35.28     283.4212     1.470           15     1.236      3.967  0.003976819  21.9189       1049
 6.11   0.0000   1027.9122    179.0766 -49.33     179.8126     1.311           15     1.163      4.717  0.003973218  22.4129       1050
 4.60   0.0000   1047.2170    207.1093 -27.54     156.1268     0.924           15     0.859      3.514  0.003976819  22.5663       1051
 3.50   0.0000   1039.2816    631.3826 -47.77     35323.21     2.058           15     1.928      4.226  0.003977719  16.6798       1052
 3.50   0.0000   1041.6345   1094.2766  32.33     201.6216     1.357           15     0.916      3.944  0.003975919  22.2887       1053
 3.50   0.0000   1029.2361    300.9309  68.34     1663.683     2.876           15     2.043      5.579  0.003977269  19.9973       1054
 3.50   0.0000   1022.7291     48.6194 -35.59     265326.3     2.663           15     2.483      4.415  0.003979068  14.4905       1055
 4.69   0.0000   1036.8662    120.3814 -38.75     695.0751     2.692           15     1.427      4.673  0.003977269  20.9449       1056
 3.50   0.0000   1025.4961   1265.4883 -47.80     151.4117     0.913           15     0.893      3.153  0.003972317  22.5996       1057
 4.11   0.0000   1027.3408    350.5623 -39.69      213.461     1.012           15     0.864      3.159  0.003977269  22.2267       1058
 4.84   0.0000   1032.6776    492.1187   7.78      136.663     0.926           15     0.617      3.522  0.003975469  22.7109       1059
 5.15   0.0000   1036.3781    240.4039 -37.49     204.0072     1.026           15     0.934      4.221  0.003976369  22.2759       1060
 3.91   0.0000   1016.2694    199.5807  19.02     284.9571     1.236           15     1.122      4.116  0.003979068  21.9130       1061
 3.50   0.0000   1024.8666   1378.5500 -84.80     19794.06     1.921           15     1.805      3.818  0.003975469  17.3087       1062
 7.67   0.0001   1045.3263   1525.2911 -47.02     69.41314     0.555           15     0.343      2.666  0.003974569  23.4464       1063
 4.24   0.0000   1028.9324    945.9547 -38.54     120.8065     0.805           15     0.755      3.233  0.003976369  22.8448       1064
 5.29   0.0002   1032.7291    100.3251  -5.16     25.48234     1.095           15     0.923      4.555  0.003973668  24.5344       1065
 3.50   0.0000   1008.8684    812.1067 -84.81     18152.11     1.849           15     1.815      3.988  0.003974569  17.4027       1066
 5.33   0.0001   1022.9832    581.0149  84.25     52.81907     0.616           15     0.614      3.080  0.003976819  23.7430       1067
 3.50   0.0000   1013.5270    451.3892  27.54     395.4219     1.343           15     1.169      4.067  0.003979068  21.5573       1068
 4.41   0.6873   1026.7218    605.8601 -20.30  0.006281125     1.087           15     0.984      4.237  0.003975018  33.5549       1069
 3.70   0.0000   1028.5109   1033.9430  60.24      123.195     0.972           15     0.665      3.201  0.003974569  22.8235       1070
 3.50   0.0000   1010.2828    343.0844 -16.33     2740.498     1.576           15     1.559      3.929  0.003973668  19.4554       1071
 5.06   0.0000   1009.9666    266.0705  42.72     440.0801     1.441           15     1.262      4.194  0.003976819  21.4412       1072
 4.42   0.0001    998.8193   1439.8516 -46.52     57.07176     0.810           15     0.662      2.679  0.003977719  23.6589       1073
 6.95   0.0000   1008.5217    188.9735  88.11     94.78169     0.793           15     0.704      3.768  0.003976369  23.1082       1074
 3.50   0.0000    997.2489    231.6879 -45.36     600.4707     1.222           15     1.169      3.881  0.003974569  21.1038       1075
 7.08   0.0000   1024.3309    127.0656  75.75     192.7608     0.993           15     0.758      4.181  0.003974118  22.3375       1076
 4.95   0.0000   1042.3434    808.2131  46.39      177.017     0.944           15     0.935      3.547  0.003978169  22.4300       1077
 3.50   0.0000   1003.4240   1236.5613  43.92      143.633     1.109           15     0.819      3.339  0.003977719  22.6569       1078
 3.50   0.0000   1000.7160    541.0248  19.40      2904.77     1.639           15     1.607      3.886  0.003976369  19.3922       1079
 3.50   0.0000   1000.5336   1554.0953  48.35     1274.465     1.408           15     1.386      3.684  0.003975018  20.2867       1080
 8.25   0.0002   1003.3074      6.3230 -44.17     18.96756     0.561           15     0.341      2.652   0.00385109  24.8550       1081
